time, .header.seq, .header.stamp.secs, .header.stamp.nsecs, .header.frame_id, .orientation.x, .orientation.y, .orientation.z, .orientation.w, .orientation_covariance, .angular_velocity.x, .angular_velocity.y, .angular_velocity.z, .angular_velocity_covariance, .linear_acceleration.x, .linear_acceleration.y, .linear_acceleration.z, .linear_acceleration_covariance
1637149246211790797, 9785, 1636513052, 801800966, base_link, -0.00518005447369, -0.0129132046622, -0.99987757417, -0.00715910977673, "(0.00016519427834118475, 0.0, 0.0, 0.0, 0.0001638459045560656, 0.0, 0.0, 0.0, 0.016688488581222183)", 0.000401649349648, 0.000605355139095, 3.82988776179e-05, "(0.001, 0.0, 0.0, 0.0, 0.001, 0.0, 0.0, 0.0, 0.001)", 0.172988897151, 0.11920521442, 0.126393572047, "(0.001, 0.0, 0.0, 0.0, 0.001, 0.0, 0.0, 0.0, 0.001)"
1637149246232085443, 9786, 1636513052, 821367979, base_link, -0.00519182203953, -0.0129127753333, -0.99987744002, -0.00717008760385, "(0.00016519427834118475, 0.0, 0.0, 0.0, 0.0001638459045560656, 0.0, 0.0, 0.0, 0.016688488581222183)", -0.000253491153385, -7.39904998683e-05, -0.000871309120146, "(0.001, 0.0, 0.0, 0.0, 0.001, 0.0, 0.0, 0.0, 0.001)", -0.0983701569339, -0.0582906853701, -0.0841319627566, "(0.001, 0.0, 0.0, 0.0, 0.001, 0.0, 0.0, 0.0, 0.001)"
1637149246250542581, 9787, 1636513052, 840667963, base_link, -0.00518408330495, -0.0129101854842, -0.999877555782, -0.00716420505548, "(0.00016519427834118475, 0.0, 0.0, 0.0, 0.0001638459045560656, 0.0, 0.0, 0.0, 0.016688488581222183)", 7.4931214212e-05, 0.000256152615278, -0.000315258369859, "(0.001, 0.0, 0.0, 0.0, 0.001, 0.0, 0.0, 0.0, 0.001)", 0.0979375140336, 0.0699182142389, 0.113324924541, "(0.001, 0.0, 0.0, 0.0, 0.001, 0.0, 0.0, 0.0, 0.001)"
1637149246273083932, 9788, 1636513052, 861669063, base_link, -0.00519110984415, -0.0129044433547, -0.999877539658, -0.00717170886043, "(0.00016519427834118475, 0.0, 0.0, 0.0, 0.0001638459045560656, 0.0, 0.0, 0.0, 0.016688488581222183)", -0.00099184452241, -0.00017792276808, -0.000572673693446, "(0.001, 0.0, 0.0, 0.0, 0.001, 0.0, 0.0, 0.0, 0.001)", 0.0198721002893, 0.0196051957334, -0.0767130888239, "(0.001, 0.0, 0.0, 0.0, 0.001, 0.0, 0.0, 0.0, 0.001)"
1637149246290598830, 9789, 1636513052, 880784034, base_link, -0.00518877015335, -0.0128975634303, -0.999877701306, -0.00716323613375, "(0.00016519427834118475, 0.0, 0.0, 0.0, 0.0001638459045560656, 0.0, 0.0, 0.0, 0.016688488581222183)", -0.00157205915429, 5.01498942106e-05, 0.000553875847394, "(0.001, 0.0, 0.0, 0.0, 0.001, 0.0, 0.0, 0.0, 0.001)", -0.0240277197568, -0.0183582814651, 0.057696465539, "(0.001, 0.0, 0.0, 0.0, 0.001, 0.0, 0.0, 0.0, 0.001)"
1637149246315045834, 9790, 1636513052, 902432918, base_link, -0.00519921606501, -0.012899641366, -0.999877609468, -0.00716473938013, "(0.00016519427834118475, 0.0, 0.0, 0.0, 0.0001638459045560656, 0.0, 0.0, 0.0, 0.016688488581222183)", -0.000426626281563, -0.000682955075017, 0.00022784262962, "(0.001, 0.0, 0.0, 0.0, 0.001, 0.0, 0.0, 0.0, 0.001)", 0.0674305578107, -0.0711624428484, -0.108145472661, "(0.001, 0.0, 0.0, 0.0, 0.001, 0.0, 0.0, 0.0, 0.001)"
1637149246330179527, 9791, 1636513052, 920404911, base_link, -0.00518226065962, -0.0128933320665, -0.999877821636, -0.00715876825226, "(0.00016519427834118475, 0.0, 0.0, 0.0, 0.0001638459045560656, 0.0, 0.0, 0.0, 0.016688488581222183)", -0.000683596049382, 0.001411648514, 0.000624622988136, "(0.001, 0.0, 0.0, 0.0, 0.001, 0.0, 0.0, 0.0, 0.001)", 0.0542916201479, 0.0618498987971, 0.107863193496, "(0.001, 0.0, 0.0, 0.0, 0.001, 0.0, 0.0, 0.0, 0.001)"
1637149246351351861, 9792, 1636513052, 941482067, base_link, -0.00520221240244, -0.0129020666443, -0.999877634744, -0.00715466293407, "(0.00016519427834118475, 0.0, 0.0, 0.0, 0.0001638459045560656, 0.0, 0.0, 0.0, 0.016688488581222183)", 0.00034666337832, -0.00108978532133, 0.000835537707466, "(0.001, 0.0, 0.0, 0.0, 0.001, 0.0, 0.0, 0.0, 0.001)", -0.0912089094805, -0.0627389329141, -0.150544889405, "(0.001, 0.0, 0.0, 0.0, 0.001, 0.0, 0.0, 0.0, 0.001)"
1637149246371552104, 9793, 1636513052, 961713075, base_link, -0.00516906611016, -0.0128993412034, -0.999877846532, -0.00715400354094, "(0.00016519427834118475, 0.0, 0.0, 0.0, 0.0001638459045560656, 0.0, 0.0, 0.0, 0.016688488581222183)", 0.000649965976587, 0.00274148652925, 0.000501474784607, "(0.001, 0.0, 0.0, 0.0, 0.001, 0.0, 0.0, 0.0, 0.001)", 0.216000899433, 0.0102253858056, 0.113767666536, "(0.001, 0.0, 0.0, 0.0, 0.001, 0.0, 0.0, 0.0, 0.001)"
1637149246390597262, 9794, 1636513052, 980829000, base_link, -0.00517460637843, -0.0129038629334, -0.999877743624, -0.00715622639745, "(0.00016519427834118475, 0.0, 0.0, 0.0, 0.0001638459045560656, 0.0, 0.0, 0.0, 0.016688488581222183)", 6.37823146574e-05, 0.00121805547705, -0.000128296557493, "(0.001, 0.0, 0.0, 0.0, 0.001, 0.0, 0.0, 0.0, 0.001)", -0.206364975755, -0.101430483252, -0.164438466063, "(0.001, 0.0, 0.0, 0.0, 0.001, 0.0, 0.0, 0.0, 0.001)"
1637149246411542713, 9795, 1636513053, 1208066, base_link, -0.00517460637843, -0.0129038629334, -0.999877743624, -0.00715622639745, "(0.00016519427834118475, 0.0, 0.0, 0.0, 0.0001638459045560656, 0.0, 0.0, 0.0, 0.016688488581222183)", -0.000720107860496, 0.000711569746699, 0.000254012186755, "(0.001, 0.0, 0.0, 0.0, 0.001, 0.0, 0.0, 0.0, 0.001)", 0.110074922726, -0.0213319518794, 0.146000315526, "(0.001, 0.0, 0.0, 0.0, 0.001, 0.0, 0.0, 0.0, 0.001)"
1637149246431944107, 9796, 1636513053, 21610021, base_link, -0.00517081899902, -0.012901483103, -0.99987777146, -0.00715936476565, "(0.00016519427834118475, 0.0, 0.0, 0.0, 0.0001638459045560656, 0.0, 0.0, 0.0, 0.016688488581222183)", 0.000278783070621, 0.00073703600362, -0.000337641034585, "(0.001, 0.0, 0.0, 0.0, 0.001, 0.0, 0.0, 0.0, 0.001)", -0.113264093623, -0.0331299669457, -0.0964342184539, "(0.001, 0.0, 0.0, 0.0, 0.001, 0.0, 0.0, 0.0, 0.001)"
1637149246450244197, 9797, 1636513053, 40483951, base_link, -0.00516274306224, -0.012915721073, -0.999877666399, -0.00715419239969, "(0.00016519427834118475, 0.0, 0.0, 0.0, 0.0001638459045560656, 0.0, 0.0, 0.0, 0.016688488581222183)", 0.0019782980507, 0.000949769843409, 7.46242364462e-05, "(0.001, 0.0, 0.0, 0.0, 0.001, 0.0, 0.0, 0.0, 0.001)", -0.0663193623666, 0.0497887187941, 0.125920803796, "(0.001, 0.0, 0.0, 0.0, 0.001, 0.0, 0.0, 0.0, 0.001)"
1637149246471584215, 9798, 1636513053, 61763048, base_link, -0.00518168228869, -0.0129154913278, -0.999877540444, -0.00715851714208, "(0.00016519427834118475, 0.0, 0.0, 0.0, 0.0001638459045560656, 0.0, 0.0, 0.0, 0.016688488581222183)", 0.000674818781131, -0.000958320382899, -0.000111510918625, "(0.001, 0.0, 0.0, 0.0, 0.001, 0.0, 0.0, 0.0, 0.001)", -0.102130723307, -0.0162783472136, -0.134080979987, "(0.001, 0.0, 0.0, 0.0, 0.001, 0.0, 0.0, 0.0, 0.001)"
1637149246491993350, 9799, 1636513053, 82154989, base_link, -0.00516449932936, -0.0129036524006, -0.99987781532, -0.00715388924872, "(0.00016519427834118475, 0.0, 0.0, 0.0, 0.0001638459045560656, 0.0, 0.0, 0.0, 0.016688488581222183)", -0.00117694551697, 0.00030997499211, 0.000213219798733, "(0.001, 0.0, 0.0, 0.0, 0.001, 0.0, 0.0, 0.0, 0.001)", 0.0993964716498, -0.00350136637351, 0.118099029334, "(0.001, 0.0, 0.0, 0.0, 0.001, 0.0, 0.0, 0.0, 0.001)"
1637149246510682737, 9800, 1636513053, 100918054, base_link, -0.00519011398137, -0.0129221307172, -0.999877374617, -0.00716358730606, "(0.00016519427834118475, 0.0, 0.0, 0.0, 0.0001638459045560656, 0.0, 0.0, 0.0, 0.016688488581222183)", 0.000899707980716, -0.00133076189502, -0.000632659879375, "(0.001, 0.0, 0.0, 0.0, 0.001, 0.0, 0.0, 0.0, 0.001)", -0.202194506994, -0.0197009469843, -0.16935545455, "(0.001, 0.0, 0.0, 0.0, 0.001, 0.0, 0.0, 0.0, 0.001)"
1637149246530858592, 9801, 1636513053, 120984077, base_link, -0.00518592074721, -0.0129206584875, -0.999877465122, -0.00715664380267, "(0.00016519427834118475, 0.0, 0.0, 0.0, 0.0001638459045560656, 0.0, 0.0, 0.0, 0.016688488581222183)", 0.00163548613015, -0.00145829061037, -1.62607443749e-06, "(0.001, 0.0, 0.0, 0.0, 0.001, 0.0, 0.0, 0.0, 0.001)", 0.255408815271, 0.222471140764, 0.212298469168, "(0.001, 0.0, 0.0, 0.0, 0.001, 0.0, 0.0, 0.0, 0.001)"
1637149246551940879, 9802, 1636513053, 142085075, base_link, -0.00518910878158, -0.0129115046525, -0.999877521849, -0.00716292528969, "(0.00016519427834118475, 0.0, 0.0, 0.0, 0.0001638459045560656, 0.0, 0.0, 0.0, 0.016688488581222183)", -0.00111630890091, 0.000125152879551, -0.00031173944412, "(0.001, 0.0, 0.0, 0.0, 0.001, 0.0, 0.0, 0.0, 0.001)", -0.182560320796, -0.103425421575, -0.174364499381, "(0.001, 0.0, 0.0, 0.0, 0.001, 0.0, 0.0, 0.0, 0.001)"
1637149246570094358, 9803, 1636513053, 160336971, base_link, -0.00518508718033, -0.0129140763895, -0.999877521055, -0.00716131213899, "(0.00016519427834118475, 0.0, 0.0, 0.0, 0.0001638459045560656, 0.0, 0.0, 0.0, 0.016688488581222183)", -0.000334855360721, -0.000368116963272, -0.000179424026237, "(0.001, 0.0, 0.0, 0.0, 0.001, 0.0, 0.0, 0.0, 0.001)", 0.148281884657, -0.0258708219417, 0.145536251755, "(0.001, 0.0, 0.0, 0.0, 0.001, 0.0, 0.0, 0.0, 0.001)"
1637149246590791946, 9804, 1636513053, 181031942, base_link, -0.00518957441575, -0.012902027186, -0.999877651353, -0.00716158761428, "(0.00016519427834118475, 0.0, 0.0, 0.0, 0.0001638459045560656, 0.0, 0.0, 0.0, 0.016688488581222183)", -0.00117779012699, 0.000450201539893, 3.01921829558e-05, "(0.001, 0.0, 0.0, 0.0, 0.001, 0.0, 0.0, 0.0, 0.001)", 0.010385782304, 0.0455733261618, -0.145634449213, "(0.001, 0.0, 0.0, 0.0, 0.001, 0.0, 0.0, 0.0, 0.001)"
1637149246610310638, 9805, 1636513053, 200526952, base_link, -0.00518052465482, -0.0129120140884, -0.999877637826, -0.00715202287605, "(0.00016519427834118475, 0.0, 0.0, 0.0, 0.0001638459045560656, 0.0, 0.0, 0.0, 0.016688488581222183)", 0.000575125915995, 0.000846058290846, 0.00118510219166, "(0.001, 0.0, 0.0, 0.0, 0.001, 0.0, 0.0, 0.0, 0.001)", 0.0260643354311, 0.0201453493865, 0.113374418975, "(0.001, 0.0, 0.0, 0.0, 0.001, 0.0, 0.0, 0.0, 0.001)"
1637149246631102825, 9806, 1636513053, 221056938, base_link, -0.00519940263788, -0.0129065879758, -0.999877594593, -0.00715416177306, "(0.00016519427834118475, 0.0, 0.0, 0.0, 0.0001638459045560656, 0.0, 0.0, 0.0, 0.016688488581222183)", -0.000656980369678, -0.00118191419515, 0.000257328180665, "(0.001, 0.0, 0.0, 0.0, 0.001, 0.0, 0.0, 0.0, 0.001)", 0.01731672453, -0.0566955290268, -0.123140029248, "(0.001, 0.0, 0.0, 0.0, 0.001, 0.0, 0.0, 0.0, 0.001)"
1637149246651026392, 9807, 1636513053, 241295099, base_link, -0.00518576121918, -0.0129012856986, -0.999877743654, -0.00715279339381, "(0.00016519427834118475, 0.0, 0.0, 0.0, 0.0001638459045560656, 0.0, 0.0, 0.0, 0.016688488581222183)", -0.000630448970942, 0.000418186383209, 0.000296565403789, "(0.001, 0.0, 0.0, 0.0, 0.001, 0.0, 0.0, 0.0, 0.001)", 0.0499947997738, -0.0435434367082, 0.145873047154, "(0.001, 0.0, 0.0, 0.0, 0.001, 0.0, 0.0, 0.0, 0.001)"
1637149246672024826, 9808, 1636513053, 262228012, base_link, -0.00519589543715, -0.0129148934173, -0.99987753772, -0.00714966860285, "(0.00016519427834118475, 0.0, 0.0, 0.0, 0.0001638459045560656, 0.0, 0.0, 0.0, 0.016688488581222183)", 0.000445713881165, -9.41269778163e-05, 0.000346745555408, "(0.001, 0.0, 0.0, 0.0, 0.001, 0.0, 0.0, 0.0, 0.001)", -0.0723292961124, -0.00472001165086, -0.16686472018, "(0.001, 0.0, 0.0, 0.0, 0.001, 0.0, 0.0, 0.0, 0.001)"
1637149246690668051, 9809, 1636513053, 280838966, base_link, -0.00517598384771, -0.0129033199966, -0.999877788088, -0.00714999393209, "(0.00016519427834118475, 0.0, 0.0, 0.0, 0.0001638459045560656, 0.0, 0.0, 0.0, 0.016688488581222183)", -0.000144780450575, 0.00147651449598, 9.12656585662e-05, "(0.001, 0.0, 0.0, 0.0, 0.001, 0.0, 0.0, 0.0, 0.001)", 0.135135839621, 0.0586742272206, 0.161897558858, "(0.001, 0.0, 0.0, 0.0, 0.001, 0.0, 0.0, 0.0, 0.001)"
1637149246716449458, 9810, 1636513053, 306615114, base_link, -0.00518730723005, -0.0128999071702, -0.999877781228, -0.00714890513943, "(0.00016519427834118475, 0.0, 0.0, 0.0, 0.0001638459045560656, 0.0, 0.0, 0.0, 0.016688488581222183)", -0.00107126108614, 0.00035013608196, 0.000214461400968, "(0.001, 0.0, 0.0, 0.0, 0.001, 0.0, 0.0, 0.0, 0.001)", -0.075358759801, -0.137658321738, -0.178646906429, "(0.001, 0.0, 0.0, 0.0, 0.001, 0.0, 0.0, 0.0, 0.001)"
1637149246733370453, 9811, 1636513053, 323296070, base_link, -0.00518646085971, -0.0129004715021, -0.999877757505, -0.00715181831183, "(0.00022273900861756544, 0.0, 0.0, 0.0, 0.00022138354353470283, 0.0, 0.0, 0.0, 0.016789962321709595)", -8.46645114322e-06, -0.000300430208585, -0.000154719742224, "(0.001, 0.0, 0.0, 0.0, 0.001, 0.0, 0.0, 0.0, 0.001)", -0.0626502065442, 0.0599068494193, 0.167252843828, "(0.001, 0.0, 0.0, 0.0, 0.001, 0.0, 0.0, 0.0, 0.001)"
1637149246751085180, 9812, 1636513053, 341332912, base_link, -0.00518825564789, -0.0129088600614, -0.999877683624, -0.00714570679022, "(0.00016518812576916952, 0.0, 0.0, 0.0, 0.00016383949104348608, 0.0, 0.0, 0.0, 0.015722743815343998)", 0.000186130331651, -0.000169564924137, 0.000565545684217, "(0.001, 0.0, 0.0, 0.0, 0.001, 0.0, 0.0, 0.0, 0.001)", 0.140895019777, 0.0248003867987, -0.137077106292, "(0.001, 0.0, 0.0, 0.0, 0.001, 0.0, 0.0, 0.0, 0.001)"
1637149246770667417, 9813, 1636513053, 360961914, base_link, -0.00519049551082, -0.0128997723716, -0.999877816462, -0.00714190287561, "(0.00016518812576916952, 0.0, 0.0, 0.0, 0.00016383949104348608, 0.0, 0.0, 0.0, 0.015722743815343998)", -1.1703980537e-06, 1.44940277665e-05, 0.000900459949898, "(0.001, 0.0, 0.0, 0.0, 0.001, 0.0, 0.0, 0.0, 0.001)", -0.242308817544, -0.020831313586, 0.0803005004525, "(0.001, 0.0, 0.0, 0.0, 0.001, 0.0, 0.0, 0.0, 0.001)"
1637149246792100495, 9814, 1636513053, 382337093, base_link, -0.00520730292646, -0.0129143952618, -0.999877546673, -0.00714101186869, "(0.00016518812576916952, 0.0, 0.0, 0.0, 0.00016383949104348608, 0.0, 0.0, 0.0, 0.015722743815343998)", 0.00114907321267, -0.00196204520148, 0.000304923385718, "(0.001, 0.0, 0.0, 0.0, 0.001, 0.0, 0.0, 0.0, 0.001)", 0.234394508166, -0.0336833519298, -0.119105586853, "(0.001, 0.0, 0.0, 0.0, 0.001, 0.0, 0.0, 0.0, 0.001)"
1637149246812211829, 9815, 1636513053, 400645971, base_link, -0.00518813432814, -0.0129034251114, -0.999877774683, -0.00714286898147, "(0.00016518812576916952, 0.0, 0.0, 0.0, 0.00016383949104348608, 0.0, 0.0, 0.0, 0.015722743815343998)", -0.000704115070363, 0.00135285411039, -1.48813277484e-05, "(0.001, 0.0, 0.0, 0.0, 0.001, 0.0, 0.0, 0.0, 0.001)", -0.169470563556, -0.00379199770387, 0.121500425178, "(0.001, 0.0, 0.0, 0.0, 0.001, 0.0, 0.0, 0.0, 0.001)"
1637149246831706613, 9816, 1636513053, 420902967, base_link, -0.00521124129234, -0.0129104800257, -0.999877609487, -0.00713642179117, "(0.00016518812576916952, 0.0, 0.0, 0.0, 0.00016383949104348608, 0.0, 0.0, 0.0, 0.015722743815343998)", 0.000654337580959, -0.00170549010995, 0.000531792707358, "(0.001, 0.0, 0.0, 0.0, 0.001, 0.0, 0.0, 0.0, 0.001)", 0.123029251122, 0.0251913303022, -0.0939259088228, "(0.001, 0.0, 0.0, 0.0, 0.001, 0.0, 0.0, 0.0, 0.001)"
1637149246851326514, 9817, 1636513053, 441612958, base_link, -0.00518961036457, -0.0129008240356, -0.999877861304, -0.00713436451617, "(0.00016518812576916952, 0.0, 0.0, 0.0, 0.00016383949104348608, 0.0, 0.0, 0.0, 0.015722743815343998)", -0.000450738823721, 0.00129774862933, 0.000772242468255, "(0.001, 0.0, 0.0, 0.0, 0.001, 0.0, 0.0, 0.0, 0.001)", 0.0103448505003, 0.0734994322938, 0.0549060920702, "(0.001, 0.0, 0.0, 0.0, 0.001, 0.0, 0.0, 0.0, 0.001)"
1637149246870975961, 9818, 1636513053, 461247920, base_link, -0.00519623725184, -0.0129087056454, -0.999877761781, -0.00712923088584, "(0.00016518812576916952, 0.0, 0.0, 0.0, 0.00016383949104348608, 0.0, 0.0, 0.0, 0.015722743815343998)", 0.000345097905932, -3.23760436973e-05, 0.000748531250613, "(0.001, 0.0, 0.0, 0.0, 0.001, 0.0, 0.0, 0.0, 0.001)", 0.0527877871511, -0.0243823336189, -0.0516780644937, "(0.001, 0.0, 0.0, 0.0, 0.001, 0.0, 0.0, 0.0, 0.001)"
1637149246891050719, 9819, 1636513053, 481241941, base_link, -0.00519198397784, -0.0128852473858, -0.999878114977, -0.00712522924846, "(0.00016518812576916952, 0.0, 0.0, 0.0, 0.00016383949104348608, 0.0, 0.0, 0.0, 0.015722743815343998)", -0.00216949035657, 0.000225154045105, 0.00107320119713, "(0.001, 0.0, 0.0, 0.0, 0.001, 0.0, 0.0, 0.0, 0.001)", -0.0674584424209, 0.0190537603438, 0.0617794640582, "(0.001, 0.0, 0.0, 0.0, 0.001, 0.0, 0.0, 0.0, 0.001)"
1637149246912258337, 9820, 1636513053, 502403020, base_link, -0.00519260181693, -0.0128980137655, -0.999877921328, -0.00712885467773, "(0.00016518812576916952, 0.0, 0.0, 0.0, 0.00016383949104348608, 0.0, 0.0, 0.0, 0.015722743815343998)", 0.000265219462657, 0.000198776393356, -1.00189464798e-06, "(0.001, 0.0, 0.0, 0.0, 0.001, 0.0, 0.0, 0.0, 0.001)", 0.235175934289, -0.00718951743247, -0.0552010642532, "(0.001, 0.0, 0.0, 0.0, 0.001, 0.0, 0.0, 0.0, 0.001)"
1637149246930499821, 9821, 1636513053, 520550012, base_link, -0.00519020037497, -0.0128953813494, -0.999878035444, -0.00711935362323, "(0.00016518812576916952, 0.0, 0.0, 0.0, 0.00016383949104348608, 0.0, 0.0, 0.0, 0.015722743815343998)", 0.000248519444298, 0.00100234790117, 0.00111300497408, "(0.001, 0.0, 0.0, 0.0, 0.001, 0.0, 0.0, 0.0, 0.001)", -0.275938164574, 0.0935722774436, 0.0197288758876, "(0.001, 0.0, 0.0, 0.0, 0.001, 0.0, 0.0, 0.0, 0.001)"
1637149246951642763, 9822, 1636513053, 541719913, base_link, -0.00520181763992, -0.0128961594619, -0.999877954168, -0.00712088002398, "(0.00016518812576916952, 0.0, 0.0, 0.0, 0.00016383949104348608, 0.0, 0.0, 0.0, 0.015722743815343998)", 0.000486395428697, -0.00135564777625, 0.00020342644505, "(0.001, 0.0, 0.0, 0.0, 0.001, 0.0, 0.0, 0.0, 0.001)", 0.246963040042, -0.0398436817916, 0.0441923124377, "(0.001, 0.0, 0.0, 0.0, 0.001, 0.0, 0.0, 0.0, 0.001)"
1637149246971724617, 9823, 1636513053, 561889886, base_link, -0.0051834165517, -0.0128889368977, -0.999878146321, -0.0071203938774, "(0.00016518812576916952, 0.0, 0.0, 0.0, 0.00016383949104348608, 0.0, 0.0, 0.0, 0.015722743815343998)", -0.00113317614524, 0.00211958477758, 0.000172714670891, "(0.001, 0.0, 0.0, 0.0, 0.001, 0.0, 0.0, 0.0, 0.001)", -0.240655691086, -0.108233752832, -0.0394817626955, "(0.001, 0.0, 0.0, 0.0, 0.001, 0.0, 0.0, 0.0, 0.001)"
1637149246990496034, 9824, 1636513053, 580665111, base_link, -0.0051834165517, -0.0128889368977, -0.999878146321, -0.0071203938774, "(0.00016518812576916952, 0.0, 0.0, 0.0, 0.00016383949104348608, 0.0, 0.0, 0.0, 0.015722743815343998)", -0.000278217734663, -0.00202597973844, -0.0001514051755, "(0.001, 0.0, 0.0, 0.0, 0.001, 0.0, 0.0, 0.0, 0.001)", 0.0976734665035, -0.0473218564567, -0.00293645495262, "(0.001, 0.0, 0.0, 0.0, 0.001, 0.0, 0.0, 0.0, 0.001)"
1637149247011161630, 9825, 1636513053, 600825071, base_link, -0.00521561506953, -0.0128742983917, -0.999878247524, -0.00710914406863, "(0.00016518812576916952, 0.0, 0.0, 0.0, 0.00016383949104348608, 0.0, 0.0, 0.0, 0.015722743815343998)", -0.00129525408083, -0.00212281719007, 0.00123349670511, "(0.001, 0.0, 0.0, 0.0, 0.001, 0.0, 0.0, 0.0, 0.001)", -0.109348867627, -0.246545280543, -0.0735174584203, "(0.001, 0.0, 0.0, 0.0, 0.001, 0.0, 0.0, 0.0, 0.001)"
1637149247032393475, 9826, 1636513053, 622632026, base_link, -0.00524728125985, -0.0128708836195, -0.999878252831, -0.00709125590038, "(0.00016518812576916952, 0.0, 0.0, 0.0, 0.00016383949104348608, 0.0, 0.0, 0.0, 0.015722743815343998)", -0.00120841573247, -0.00406128970145, 0.0026684040727, "(0.001, 0.0, 0.0, 0.0, 0.001, 0.0, 0.0, 0.0, 0.001)", -0.0342361359177, -0.243584193957, -0.0999680852118, "(0.001, 0.0, 0.0, 0.0, 0.001, 0.0, 0.0, 0.0, 0.001)"
1637149247050407430, 9827, 1636513053, 640594959, base_link, -0.00528022587763, -0.0128900192191, -0.999877885467, -0.00708383894298, "(0.00016518812576916952, 0.0, 0.0, 0.0, 0.00016383949104348608, 0.0, 0.0, 0.0, 0.015722743815343998)", 0.00208442494238, -0.00679197192636, 0.00303484715461, "(0.001, 0.0, 0.0, 0.0, 0.001, 0.0, 0.0, 0.0, 0.001)", -0.337514291788, -0.0627223149262, -0.317025766757, "(0.001, 0.0, 0.0, 0.0, 0.001, 0.0, 0.0, 0.0, 0.001)"
1637149247071351813, 9828, 1636513053, 661642074, base_link, -0.00529984145266, -0.0129160407423, -0.999877421891, -0.00708722543825, "(0.00016518812576916952, 0.0, 0.0, 0.0, 0.00016383949104348608, 0.0, 0.0, 0.0, 0.015722743815343998)", 0.00349379584219, -0.00422345941879, 0.000172729467376, "(0.001, 0.0, 0.0, 0.0, 0.001, 0.0, 0.0, 0.0, 0.001)", 0.0486162319772, -0.0998340207426, -0.126237005285, "(0.001, 0.0, 0.0, 0.0, 0.001, 0.0, 0.0, 0.0, 0.001)"
1637149247090924156, 9829, 1636513053, 680951118, base_link, -0.00532901279798, -0.0129401487871, -0.999876892592, -0.00709604349248, "(0.00016518812576916952, 0.0, 0.0, 0.0, 0.00016383949104348608, 0.0, 0.0, 0.0, 0.015722743815343998)", 0.00563395393196, -0.00573600293265, -0.000730407979304, "(0.001, 0.0, 0.0, 0.0, 0.001, 0.0, 0.0, 0.0, 0.001)", -0.481510385117, -0.113535178457, -0.22017937436, "(0.001, 0.0, 0.0, 0.0, 0.001, 0.0, 0.0, 0.0, 0.001)"
1637149247111398056, 9830, 1636513053, 701600074, base_link, -0.00535898964949, -0.0129631382379, -0.999876341537, -0.00710914282489, "(0.00016518812576916952, 0.0, 0.0, 0.0, 0.00016383949104348608, 0.0, 0.0, 0.0, 0.015722743815343998)", 0.00378748764435, -0.00503308475021, -0.00174710851216, "(0.001, 0.0, 0.0, 0.0, 0.001, 0.0, 0.0, 0.0, 0.001)", 0.159768401853, -0.0974592156883, 0.00866634277636, "(0.001, 0.0, 0.0, 0.0, 0.001, 0.0, 0.0, 0.0, 0.001)"
1637149247130798210, 9831, 1636513053, 720998048, base_link, -0.00539099788494, -0.0130079152421, -0.999875402443, -0.00713518552186, "(0.00016518812576916952, 0.0, 0.0, 0.0, 0.00016383949104348608, 0.0, 0.0, 0.0, 0.015722743815343998)", 0.00847021955933, -0.00618034441157, -0.00452270839768, "(0.001, 0.0, 0.0, 0.0, 0.001, 0.0, 0.0, 0.0, 0.001)", -0.514286334753, 0.000690797620987, -0.176999737724, "(0.001, 0.0, 0.0, 0.0, 0.001, 0.0, 0.0, 0.0, 0.001)"
1637149247151045702, 9832, 1636513053, 741154909, base_link, -0.00543350790912, -0.0130570911194, -0.999874395404, -0.00715421402624, "(0.00016518812576916952, 0.0, 0.0, 0.0, 0.00016383949104348608, 0.0, 0.0, 0.0, 0.015722743815343998)", 0.00711109128709, -0.0069656896115, -0.00317845885629, "(0.001, 0.0, 0.0, 0.0, 0.001, 0.0, 0.0, 0.0, 0.001)", 0.201856940899, 0.0522754708835, 0.0397477929802, "(0.001, 0.0, 0.0, 0.0, 0.001, 0.0, 0.0, 0.0, 0.001)"
1637149247170409227, 9833, 1636513053, 760565996, base_link, -0.00547820837233, -0.0130900571647, -0.999873535794, -0.00717997600464, "(0.00016518812576916952, 0.0, 0.0, 0.0, 0.00016383949104348608, 0.0, 0.0, 0.0, 0.015722743815343998)", 0.00965048212029, -0.00950193628972, -0.00529448157041, "(0.001, 0.0, 0.0, 0.0, 0.001, 0.0, 0.0, 0.0, 0.001)", -0.194566036865, 0.0927403672333, -0.16584191759, "(0.001, 0.0, 0.0, 0.0, 0.001, 0.0, 0.0, 0.0, 0.001)"
1637149247191507671, 9834, 1636513053, 781663894, base_link, -0.00552032702838, -0.0131352396434, -0.999872579101, -0.00719840468659, "(0.00016518812576916952, 0.0, 0.0, 0.0, 0.00016383949104348608, 0.0, 0.0, 0.0, 0.015722743815343998)", 0.00681059139568, -0.00729478682331, -0.00344701649815, "(0.001, 0.0, 0.0, 0.0, 0.001, 0.0, 0.0, 0.0, 0.001)", 0.264974507888, 0.0437712922494, 0.0587014510834, "(0.001, 0.0, 0.0, 0.0, 0.001, 0.0, 0.0, 0.0, 0.001)"
1637149247214104496, 9835, 1636513053, 803257942, base_link, -0.00556804222366, -0.0131842249017, -0.999871567444, -0.00721260958881, "(0.00016518812576916952, 0.0, 0.0, 0.0, 0.00016383949104348608, 0.0, 0.0, 0.0, 0.015722743815343998)", 0.0111607795833, -0.010501335053, -0.00382093463954, "(0.001, 0.0, 0.0, 0.0, 0.001, 0.0, 0.0, 0.0, 0.001)", -0.00201132181616, 0.215656912276, -0.0681502066935, "(0.001, 0.0, 0.0, 0.0, 0.001, 0.0, 0.0, 0.0, 0.001)"
1637149247231684150, 9836, 1636513053, 821830987, base_link, -0.00558706447131, -0.0132267404523, -0.999870872439, -0.00721640459283, "(0.00016518812576916952, 0.0, 0.0, 0.0, 0.00016383949104348608, 0.0, 0.0, 0.0, 0.015722743815343998)", 0.00763982926988, -0.00510650088723, -0.001433805324, "(0.001, 0.0, 0.0, 0.0, 0.001, 0.0, 0.0, 0.0, 0.001)", 0.440201358972, 0.217848334442, 0.129028802955, "(0.001, 0.0, 0.0, 0.0, 0.001, 0.0, 0.0, 0.0, 0.001)"
1637149247250753670, 9837, 1636513053, 840949058, base_link, -0.00563413030332, -0.0132794564793, -0.999869865591, -0.00722249919911, "(0.00016518812576916952, 0.0, 0.0, 0.0, 0.00016383949104348608, 0.0, 0.0, 0.0, 0.015722743815343998)", 0.0115299634106, -0.00842404167596, -0.00149128943193, "(0.001, 0.0, 0.0, 0.0, 0.001, 0.0, 0.0, 0.0, 0.001)", -0.127954286893, 0.230762866317, -0.118368841088, "(0.001, 0.0, 0.0, 0.0, 0.001, 0.0, 0.0, 0.0, 0.001)"
1637149247270635730, 9838, 1636513053, 860857963, base_link, -0.00564410575873, -0.013326631149, -0.999869173559, -0.00722362362325, "(0.00016518812576916952, 0.0, 0.0, 0.0, 0.00016383949104348608, 0.0, 0.0, 0.0, 0.015722743815343998)", 0.00821240908724, -0.00407734528453, -0.000565843881262, "(0.001, 0.0, 0.0, 0.0, 0.001, 0.0, 0.0, 0.0, 0.001)", 0.495556167553, 0.223037959724, 0.124136577949, "(0.001, 0.0, 0.0, 0.0, 0.001, 0.0, 0.0, 0.0, 0.001)"
1637149247291086439, 9839, 1636513053, 881227970, base_link, -0.00566260271175, -0.0133790839096, -0.999868429579, -0.00721516289954, "(0.00016518812576916952, 0.0, 0.0, 0.0, 0.00016383949104348608, 0.0, 0.0, 0.0, 0.015722743815343998)", 0.0118733117957, -0.00354650253273, 0.000645417149169, "(0.001, 0.0, 0.0, 0.0, 0.001, 0.0, 0.0, 0.0, 0.001)", -0.132629904364, 0.333246642285, -0.17077559442, "(0.001, 0.0, 0.0, 0.0, 0.001, 0.0, 0.0, 0.0, 0.001)"
1637149247310772592, 9840, 1636513053, 901010990, base_link, -0.00566458781717, -0.013439491909, -0.999867717429, -0.00720001005458, "(0.00016518812576916952, 0.0, 0.0, 0.0, 0.00016383949104348608, 0.0, 0.0, 0.0, 0.015722743815343998)", 0.00955991395824, -0.00200714087398, 0.00193781333726, "(0.001, 0.0, 0.0, 0.0, 0.001, 0.0, 0.0, 0.0, 0.001)", 0.379585657415, 0.320883883801, 0.139905401632, "(0.001, 0.0, 0.0, 0.0, 0.001, 0.0, 0.0, 0.0, 0.001)"
1637149247330324496, 9841, 1636513053, 920269012, base_link, -0.00567861987688, -0.0134895996499, -0.9998669741, -0.00719847772194, "(0.00016518812576916952, 0.0, 0.0, 0.0, 0.00016383949104348608, 0.0, 0.0, 0.0, 0.015722743815343998)", 0.0127373738105, -0.00170798176006, 0.00157589862761, "(0.001, 0.0, 0.0, 0.0, 0.001, 0.0, 0.0, 0.0, 0.001)", -0.0895901138672, 0.545286882781, -0.164547637599, "(0.001, 0.0, 0.0, 0.0, 0.001, 0.0, 0.0, 0.0, 0.001)"
1637149247350646873, 9842, 1636513053, 940824985, base_link, -0.00568814358684, -0.01355052109, -0.999866173227, -0.00718776997449, "(0.00016518812576916952, 0.0, 0.0, 0.0, 0.00016383949104348608, 0.0, 0.0, 0.0, 0.015722743815343998)", 0.00946082439196, -0.00192422570672, 0.0012112226868, "(0.001, 0.0, 0.0, 0.0, 0.001, 0.0, 0.0, 0.0, 0.001)", 0.2167855445, 0.337627646656, 0.108321821942, "(0.001, 0.0, 0.0, 0.0, 0.001, 0.0, 0.0, 0.0, 0.001)"
1637149247371068613, 9843, 1636513053, 961175918, base_link, -0.00569328840626, -0.0136133435439, -0.999865331439, -0.00718208397358, "(0.00016518812576916952, 0.0, 0.0, 0.0, 0.00016383949104348608, 0.0, 0.0, 0.0, 0.015722743815343998)", 0.014553969223, -0.00136609089634, 0.00193044938701, "(0.001, 0.0, 0.0, 0.0, 0.001, 0.0, 0.0, 0.0, 0.001)", -0.0964869279516, 0.643475730756, -0.256421304507, "(0.001, 0.0, 0.0, 0.0, 0.001, 0.0, 0.0, 0.0, 0.001)"
1637149247390535538, 9844, 1636513053, 980768918, base_link, -0.00567574999308, -0.0136848203906, -0.999864493279, -0.00717681217643, "(0.00016518812576916952, 0.0, 0.0, 0.0, 0.00016383949104348608, 0.0, 0.0, 0.0, 0.015722743815343998)", 0.0109729669001, 0.00107300215367, 0.00086126939739, "(0.001, 0.0, 0.0, 0.0, 0.001, 0.0, 0.0, 0.0, 0.001)", 0.192497505747, 0.497420992483, 0.100899383661, "(0.001, 0.0, 0.0, 0.0, 0.001, 0.0, 0.0, 0.0, 0.001)"
1637149247410941879, 9845, 1636513054, 628948, base_link, -0.00569360803921, -0.0137645139819, -0.999863280704, -0.00717919784191, "(0.00016518812576916952, 0.0, 0.0, 0.0, 0.00016383949104348608, 0.0, 0.0, 0.0, 0.015722743815343998)", 0.0179132347924, -0.000467883111134, 0.000148339226885, "(0.001, 0.0, 0.0, 0.0, 0.001, 0.0, 0.0, 0.0, 0.001)", -0.243344517399, 0.85152344027, -0.281139177763, "(0.001, 0.0, 0.0, 0.0, 0.001, 0.0, 0.0, 0.0, 0.001)"
1637149247431959405, 9846, 1636513054, 22173881, base_link, -0.00567581284498, -0.0138447233177, -0.999862242986, -0.00718358104919, "(0.00016518812576916952, 0.0, 0.0, 0.0, 0.00016383949104348608, 0.0, 0.0, 0.0, 0.015722743815343998)", 0.0129295225668, 0.000792375414107, -0.000319358179161, "(0.001, 0.0, 0.0, 0.0, 0.001, 0.0, 0.0, 0.0, 0.001)", 0.211785091589, 0.657456941475, 0.155152064931, "(0.001, 0.0, 0.0, 0.0, 0.001, 0.0, 0.0, 0.0, 0.001)"
1637149247450378418, 9847, 1636513054, 40589094, base_link, -0.00569080733599, -0.01392418814, -0.999860937093, -0.00719987301528, "(0.00016518812576916952, 0.0, 0.0, 0.0, 0.00016383949104348608, 0.0, 0.0, 0.0, 0.015722743815343998)", 0.018812453199, -0.000211196480675, -0.00273862269566, "(0.001, 0.0, 0.0, 0.0, 0.001, 0.0, 0.0, 0.0, 0.001)", -0.191183328881, 0.895823687824, -0.283056283888, "(0.001, 0.0, 0.0, 0.0, 0.001, 0.0, 0.0, 0.0, 0.001)"
1637149247472190330, 9848, 1636513054, 62279939, base_link, -0.00567535441209, -0.0140174008271, -0.999859593035, -0.00721782805677, "(0.00016518812576916952, 0.0, 0.0, 0.0, 0.00016383949104348608, 0.0, 0.0, 0.0, 0.015722743815343998)", 0.0142951340513, 0.00102867849899, -0.0023386664061, "(0.001, 0.0, 0.0, 0.0, 0.001, 0.0, 0.0, 0.0, 0.001)", 0.107850901381, 0.690990892575, 0.173265453055, "(0.001, 0.0, 0.0, 0.0, 0.001, 0.0, 0.0, 0.0, 0.001)"
1637149247491546398, 9849, 1636513054, 81788063, base_link, -0.00567779373221, -0.0141108501136, -0.999858087379, -0.00724235248085, "(0.00016518812576916952, 0.0, 0.0, 0.0, 0.00016383949104348608, 0.0, 0.0, 0.0, 0.015722743815343998)", 0.0219586489518, 0.000832027140421, -0.00543159031507, "(0.001, 0.0, 0.0, 0.0, 0.001, 0.0, 0.0, 0.0, 0.001)", -0.0344633004575, 1.20756974321, -0.286994426396, "(0.001, 0.0, 0.0, 0.0, 0.001, 0.0, 0.0, 0.0, 0.001)"
1637149247510764991, 9850, 1636513054, 100913047, base_link, -0.00566355970497, -0.0141976028671, -0.999856816845, -0.00725933693533, "(0.00016518812576916952, 0.0, 0.0, 0.0, 0.00016383949104348608, 0.0, 0.0, 0.0, 0.015722743815343998)", 0.0146507125404, 0.00144418491115, -0.00273633712619, "(0.001, 0.0, 0.0, 0.0, 0.001, 0.0, 0.0, 0.0, 0.001)", 0.0259550158542, 0.691635835318, 0.233938102966, "(0.001, 0.0, 0.0, 0.0, 0.001, 0.0, 0.0, 0.0, 0.001)"
1637149247531493267, 9851, 1636513054, 120604038, base_link, -0.0056776513628, -0.0142869352904, -0.999855245366, -0.00728944915327, "(0.00016518812576916952, 0.0, 0.0, 0.0, 0.00016383949104348608, 0.0, 0.0, 0.0, 0.015722743815343998)", 0.021450651985, -0.00035471937776, -0.00633930740922, "(0.001, 0.0, 0.0, 0.0, 0.001, 0.0, 0.0, 0.0, 0.001)", 0.0380204155513, 1.32471342447, -0.160198764578, "(0.001, 0.0, 0.0, 0.0, 0.001, 0.0, 0.0, 0.0, 0.001)"
1637149247552106774, 9852, 1636513054, 142322063, base_link, -0.00564578507193, -0.0143729427428, -0.999854087969, -0.00730386192356, "(0.00016518812576916952, 0.0, 0.0, 0.0, 0.00016383949104348608, 0.0, 0.0, 0.0, 0.015722743815343998)", 0.0142217527823, 0.00262802757032, -0.00297709079217, "(0.001, 0.0, 0.0, 0.0, 0.001, 0.0, 0.0, 0.0, 0.001)", 0.0805759583911, 0.824417050596, 0.277697481247, "(0.001, 0.0, 0.0, 0.0, 0.001, 0.0, 0.0, 0.0, 0.001)"
1637149247570306289, 9853, 1636513054, 160470008, base_link, -0.00566854642229, -0.0144494920539, -0.99985273561, -0.00732030426081, "(0.00016518812576916952, 0.0, 0.0, 0.0, 0.00016383949104348608, 0.0, 0.0, 0.0, 0.015722743815343998)", 0.0190747284566, -6.70077401343e-05, -0.00428261599011, "(0.001, 0.0, 0.0, 0.0, 0.001, 0.0, 0.0, 0.0, 0.001)", -0.0488819840125, 1.37616205673, -0.138752354444, "(0.001, 0.0, 0.0, 0.0, 0.001, 0.0, 0.0, 0.0, 0.001)"
1637149247591014564, 9854, 1636513054, 181237936, base_link, -0.00564407423317, -0.0145165854895, -0.9998517902, -0.00733558484339, "(0.00016518812576916952, 0.0, 0.0, 0.0, 0.00016383949104348608, 0.0, 0.0, 0.0, 0.015722743815343998)", 0.0120269333953, 0.00141293098204, -0.00253461835392, "(0.001, 0.0, 0.0, 0.0, 0.001, 0.0, 0.0, 0.0, 0.001)", 0.156181713416, 0.849085254779, 0.335322142843, "(0.001, 0.0, 0.0, 0.0, 0.001, 0.0, 0.0, 0.0, 0.001)"
1637149247610245978, 9855, 1636513054, 200361013, base_link, -0.00566395975012, -0.0145822303563, -0.999850641659, -0.00734659734112, "(0.00016518812576916952, 0.0, 0.0, 0.0, 0.00016383949104348608, 0.0, 0.0, 0.0, 0.015722743815343998)", 0.0158755551073, -0.000213948388486, -0.00349035309155, "(0.001, 0.0, 0.0, 0.0, 0.001, 0.0, 0.0, 0.0, 0.001)", -0.125099181016, 1.50690372064, -0.0949773274905, "(0.001, 0.0, 0.0, 0.0, 0.001, 0.0, 0.0, 0.0, 0.001)"
1637149247631990137, 9856, 1636513054, 221518039, base_link, -0.00565774810601, -0.0146267184299, -0.999849939497, -0.00735849731577, "(0.00016518812576916952, 0.0, 0.0, 0.0, 0.00016383949104348608, 0.0, 0.0, 0.0, 0.015722743815343998)", 0.00905633227758, -0.000133134505948, -0.00168551573703, "(0.001, 0.0, 0.0, 0.0, 0.001, 0.0, 0.0, 0.0, 0.001)", 0.157327967428, 0.864335060367, 0.32583521982, "(0.001, 0.0, 0.0, 0.0, 0.001, 0.0, 0.0, 0.0, 0.001)"
1637149247650600222, 9857, 1636513054, 240856885, base_link, -0.00566952535075, -0.0146747260601, -0.999849107491, -0.00736689536336, "(0.00016518812576916952, 0.0, 0.0, 0.0, 0.00016383949104348608, 0.0, 0.0, 0.0, 0.015722743815343998)", 0.0122176051821, -0.000936213909816, -0.00283472514924, "(0.001, 0.0, 0.0, 0.0, 0.001, 0.0, 0.0, 0.0, 0.001)", -0.0775888253895, 1.50022667332, -0.0675155767636, "(0.001, 0.0, 0.0, 0.0, 0.001, 0.0, 0.0, 0.0, 0.001)"
1637149247672055280, 9858, 1636513054, 262168884, base_link, -0.00566952535075, -0.0146747260601, -0.999849107491, -0.00736689536336, "(0.00016518812576916952, 0.0, 0.0, 0.0, 0.00016383949104348608, 0.0, 0.0, 0.0, 0.015722743815343998)", 0.00617396258728, -0.00113959917137, -0.000783663954387, "(0.001, 0.0, 0.0, 0.0, 0.001, 0.0, 0.0, 0.0, 0.001)", 0.0931742703311, 0.88254898359, 0.312888752239, "(0.001, 0.0, 0.0, 0.0, 0.001, 0.0, 0.0, 0.0, 0.001)"
1637149247690343636, 9859, 1636513054, 280311107, base_link, -0.00569406928097, -0.0147207625318, -0.999848247855, -0.00737278696079, "(0.00016518812576916952, 0.0, 0.0, 0.0, 0.00016383949104348608, 0.0, 0.0, 0.0, 0.015722743815343998)", 0.00560576118158, -0.00267543679159, -0.000987054211087, "(0.001, 0.0, 0.0, 0.0, 0.001, 0.0, 0.0, 0.0, 0.001)", -0.0945115834807, 1.40035724203, -0.0297690029758, "(0.001, 0.0, 0.0, 0.0, 0.001, 0.0, 0.0, 0.0, 0.001)"
1637149247715163175, 9860, 1636513054, 305057048, base_link, -0.00568841799154, -0.014739280882, -0.999847954033, -0.00737999433374, "(0.00016518812576916952, 0.0, 0.0, 0.0, 0.00016383949104348608, 0.0, 0.0, 0.0, 0.015722743815343998)", 0.00365862839164, -0.000876290700968, -0.000537250551482, "(0.001, 0.0, 0.0, 0.0, 0.001, 0.0, 0.0, 0.0, 0.001)", 0.15521732473, 0.939916056702, 0.237429165044, "(0.001, 0.0, 0.0, 0.0, 0.001, 0.0, 0.0, 0.0, 0.001)"
1637149247732261428, 9861, 1636513054, 322469949, base_link, -0.00571510941213, -0.0147467285357, -0.999847607574, -0.00739142406356, "(0.00022268713881196892, 0.0, 0.0, 0.0, 0.00022131387544619633, 0.0, 0.0, 0.0, 0.015822085680385678)", 0.00266525219112, -0.00310887991792, -0.00241580469343, "(0.001, 0.0, 0.0, 0.0, 0.001, 0.0, 0.0, 0.0, 0.001)", -0.276966453912, 1.4197358153, -0.11328098024, "(0.001, 0.0, 0.0, 0.0, 0.001, 0.0, 0.0, 0.0, 0.001)"
1637149247750785925, 9862, 1636513054, 340943098, base_link, -0.00572865801739, -0.0147610221743, -0.999847247531, -0.0074011017135, "(0.0002226800509636008, 0.0, 0.0, 0.0, 0.0002213078624458166, 0.0, 0.0, 0.0, 0.015821789533593034)", 0.00267944584112, -0.00262280964071, -0.00124941080682, "(0.001, 0.0, 0.0, 0.0, 0.001, 0.0, 0.0, 0.0, 0.001)", 0.203636231679, 0.935221506056, 0.192402649704, "(0.001, 0.0, 0.0, 0.0, 0.001, 0.0, 0.0, 0.0, 0.001)"
1637149247770791308, 9863, 1636513054, 360939979, base_link, -0.00574749502956, -0.0147635121998, -0.999846992699, -0.00741594224576, "(0.0002226800509636008, 0.0, 0.0, 0.0, 0.0002213078624458166, 0.0, 0.0, 0.0, 0.015821789533593034)", 0.00193085726078, -0.00335287542756, -0.00311334618702, "(0.001, 0.0, 0.0, 0.0, 0.001, 0.0, 0.0, 0.0, 0.001)", -0.237482352315, 1.34819817657, -0.187858497713, "(0.001, 0.0, 0.0, 0.0, 0.001, 0.0, 0.0, 0.0, 0.001)"
1637149247792467275, 9864, 1636513054, 382581949, base_link, -0.00576259431628, -0.0147711387035, -0.999846722406, -0.00742547391348, "(0.0002226800509636008, 0.0, 0.0, 0.0, 0.0002213078624458166, 0.0, 0.0, 0.0, 0.015821789533593034)", 0.00121919401376, -0.00336825373695, -0.00154823330846, "(0.001, 0.0, 0.0, 0.0, 0.001, 0.0, 0.0, 0.0, 0.001)", 0.170048619939, 0.966759007688, 0.159596083076, "(0.001, 0.0, 0.0, 0.0, 0.001, 0.0, 0.0, 0.0, 0.001)"
1637149247811896637, 9865, 1636513054, 401936054, base_link, -0.00577823080458, -0.0147646309563, -0.999846574641, -0.0074461332806, "(0.0002226800509636008, 0.0, 0.0, 0.0, 0.0002213078624458166, 0.0, 0.0, 0.0, 0.015821789533593034)", -0.000237821207419, -0.00339084043871, -0.00391711403109, "(0.001, 0.0, 0.0, 0.0, 0.001, 0.0, 0.0, 0.0, 0.001)", -0.0998899341214, 1.35733562989, -0.20210667827, "(0.001, 0.0, 0.0, 0.0, 0.001, 0.0, 0.0, 0.0, 0.001)"
1637149247831169556, 9866, 1636513054, 421310901, base_link, -0.00579131811084, -0.0147809328851, -0.999846158511, -0.00745948851784, "(0.0002226800509636008, 0.0, 0.0, 0.0, 0.0002213078624458166, 0.0, 0.0, 0.0, 0.015821789533593034)", 0.00143515041652, -0.00276704148954, -0.00222456584018, "(0.001, 0.0, 0.0, 0.0, 0.001, 0.0, 0.0, 0.0, 0.001)", 0.145183956731, 0.930911843838, 0.119628187572, "(0.001, 0.0, 0.0, 0.0, 0.001, 0.0, 0.0, 0.0, 0.001)"
1637149247851610408, 9867, 1636513054, 441788911, base_link, -0.00581075475972, -0.0147763453266, -0.999845982069, -0.007477090885, "(0.0002226800509636008, 0.0, 0.0, 0.0, 0.0002213078624458166, 0.0, 0.0, 0.0, 0.015821789533593034)", 0.000360592829667, -0.00362485183544, -0.00396476955057, "(0.001, 0.0, 0.0, 0.0, 0.001, 0.0, 0.0, 0.0, 0.001)", -0.0727627593546, 1.36233945383, -0.224368207466, "(0.001, 0.0, 0.0, 0.0, 0.001, 0.0, 0.0, 0.0, 0.001)"
1637149247870922139, 9868, 1636513054, 461114883, base_link, -0.00582151873611, -0.0147803743284, -0.999845782008, -0.00748749995868, "(0.0002226800509636008, 0.0, 0.0, 0.0, 0.0002213078624458166, 0.0, 0.0, 0.0, 0.015821789533593034)", 0.00109420621865, -0.00260073762096, -0.00189955583725, "(0.001, 0.0, 0.0, 0.0, 0.001, 0.0, 0.0, 0.0, 0.001)", 0.140230014825, 0.899407738439, 0.100586640875, "(0.001, 0.0, 0.0, 0.0, 0.001, 0.0, 0.0, 0.0, 0.001)"
1637149247890771699, 9869, 1636513054, 481070041, base_link, -0.00585499374371, -0.0147722572625, -0.999845668776, -0.00749253588118, "(0.0002226800509636008, 0.0, 0.0, 0.0, 0.0002213078624458166, 0.0, 0.0, 0.0, 0.015821789533593034)", -0.000736469174916, -0.00527762219756, -0.00191836451026, "(0.001, 0.0, 0.0, 0.0, 0.001, 0.0, 0.0, 0.0, 0.001)", -0.0740172672943, 1.29302420278, -0.183726483598, "(0.001, 0.0, 0.0, 0.0, 0.001, 0.0, 0.0, 0.0, 0.001)"
1637149247911201758, 9870, 1636513054, 501404047, base_link, -0.00586810297202, -0.0147642977663, -0.999845721816, -0.00749089076006, "(0.0002226800509636008, 0.0, 0.0, 0.0, 0.0002213078624458166, 0.0, 0.0, 0.0, 0.015821789533593034)", -0.00100266259671, -0.00347107212487, -0.000213859255514, "(0.001, 0.0, 0.0, 0.0, 0.001, 0.0, 0.0, 0.0, 0.001)", 0.197183362029, 0.818208780391, 0.217683327696, "(0.001, 0.0, 0.0, 0.0, 0.001, 0.0, 0.0, 0.0, 0.001)"
1637149247931109466, 9871, 1636513054, 520483970, base_link, -0.0058986118693, -0.0147370454883, -0.999845993375, -0.00748434362864, "(0.0002226800509636008, 0.0, 0.0, 0.0, 0.0002213078624458166, 0.0, 0.0, 0.0, 0.015821789533593034)", -0.00409234445829, -0.00551143040908, 0.000283792173272, "(0.001, 0.0, 0.0, 0.0, 0.001, 0.0, 0.0, 0.0, 0.001)", 0.0298776034415, 1.30844187451, -0.0940276903027, "(0.001, 0.0, 0.0, 0.0, 0.001, 0.0, 0.0, 0.0, 0.001)"
1637149247951644806, 9872, 1636513054, 541887044, base_link, -0.00591532917371, -0.0147215580448, -0.999846158059, -0.0074796273122, "(0.0002226800509636008, 0.0, 0.0, 0.0, 0.0002213078624458166, 0.0, 0.0, 0.0, 0.015821789533593034)", -0.00279989853771, -0.00375042535872, 0.00133092241343, "(0.001, 0.0, 0.0, 0.0, 0.001, 0.0, 0.0, 0.0, 0.001)", 0.106851345364, 0.800253111685, 0.259744636817, "(0.001, 0.0, 0.0, 0.0, 0.001, 0.0, 0.0, 0.0, 0.001)"
1637149247971619785, 9873, 1636513054, 561907052, base_link, -0.00593085256475, -0.0146756680842, -0.999846785494, -0.00747363976017, "(0.0002226800509636008, 0.0, 0.0, 0.0, 0.0002213078624458166, 0.0, 0.0, 0.0, 0.015821789533593034)", -0.0083981267648, -0.00393768562128, 0.00137758182879, "(0.001, 0.0, 0.0, 0.0, 0.001, 0.0, 0.0, 0.0, 0.001)", 0.147019024204, 1.27819876848, -0.199540936576, "(0.001, 0.0, 0.0, 0.0, 0.001, 0.0, 0.0, 0.0, 0.001)"
1637149247990643206, 9874, 1636513054, 580847024, base_link, -0.00592928685076, -0.0146449635217, -0.999847327937, -0.00746253435847, "(0.0002226800509636008, 0.0, 0.0, 0.0, 0.0002213078624458166, 0.0, 0.0, 0.0, 0.015821789533593034)", -0.00483652219068, -0.00103538577946, 0.00162684922094, "(0.001, 0.0, 0.0, 0.0, 0.001, 0.0, 0.0, 0.0, 0.001)", -0.00227193979011, 0.692191697581, 0.276355635138, "(0.001, 0.0, 0.0, 0.0, 0.001, 0.0, 0.0, 0.0, 0.001)"
1637149248010000211, 9875, 1636513054, 600279092, base_link, -0.00593562250362, -0.0146206176422, -0.999847725525, -0.00745195858419, "(0.0002226800509636008, 0.0, 0.0, 0.0, 0.0002213078624458166, 0.0, 0.0, 0.0, 0.015821789533593034)", -0.00761258784419, -0.00136734286696, 0.00238999057929, "(0.001, 0.0, 0.0, 0.0, 0.001, 0.0, 0.0, 0.0, 0.001)", 0.174193252278, 1.28319921051, -0.315343123438, "(0.001, 0.0, 0.0, 0.0, 0.001, 0.0, 0.0, 0.0, 0.001)"
1637149248032443345, 9876, 1636513054, 622452020, base_link, -0.00593838730234, -0.0145865078648, -0.99984821989, -0.00745027034788, "(0.0002226800509636008, 0.0, 0.0, 0.0, 0.0002213078624458166, 0.0, 0.0, 0.0, 0.015821789533593034)", -0.00407866347541, -0.00043116446164, 0.000968706811902, "(0.001, 0.0, 0.0, 0.0, 0.001, 0.0, 0.0, 0.0, 0.001)", -0.146538110699, 0.799678897329, 0.310238739107, "(0.001, 0.0, 0.0, 0.0, 0.001, 0.0, 0.0, 0.0, 0.001)"
1637149248050260058, 9877, 1636513054, 640538930, base_link, -0.00595779165539, -0.014572315073, -0.999848384075, -0.00744051177811, "(0.0002226800509636008, 0.0, 0.0, 0.0, 0.0002213078624458166, 0.0, 0.0, 0.0, 0.015821789533593034)", -0.00569302851878, -0.00315082913882, 0.00164211704751, "(0.001, 0.0, 0.0, 0.0, 0.001, 0.0, 0.0, 0.0, 0.001)", 0.0977292760207, 1.17005067143, -0.348004011009, "(0.001, 0.0, 0.0, 0.0, 0.001, 0.0, 0.0, 0.0, 0.001)"
1637149248071543441, 9878, 1636513054, 661808967, base_link, -0.00596342416214, -0.0145540081474, -0.999848538977, -0.00745100824803, "(0.0002226800509636008, 0.0, 0.0, 0.0, 0.0002213078624458166, 0.0, 0.0, 0.0, 0.015821789533593034)", -0.00271941327144, -0.00132823809636, -0.000206722252984, "(0.001, 0.0, 0.0, 0.0, 0.001, 0.0, 0.0, 0.0, 0.001)", -0.166015208106, 0.848552799433, 0.322497050797, "(0.001, 0.0, 0.0, 0.0, 0.001, 0.0, 0.0, 0.0, 0.001)"
1637149248091489868, 9879, 1636513054, 681739091, base_link, -0.00598089700832, -0.0145278305878, -0.999848820708, -0.00745028447603, "(0.0002226800509636008, 0.0, 0.0, 0.0, 0.0002213078624458166, 0.0, 0.0, 0.0, 0.015821789533593034)", -0.00580265793713, -0.00326255509995, -0.000566175506912, "(0.001, 0.0, 0.0, 0.0, 0.001, 0.0, 0.0, 0.0, 0.001)", 0.167946647181, 1.2158378294, -0.304654878412, "(0.001, 0.0, 0.0, 0.0, 0.001, 0.0, 0.0, 0.0, 0.001)"
1637149248110313673, 9880, 1636513054, 700521945, base_link, -0.00598089700832, -0.0145278305878, -0.999848820708, -0.00745028447603, "(0.0002226800509636008, 0.0, 0.0, 0.0, 0.0002213078624458166, 0.0, 0.0, 0.0, 0.015821789533593034)", -0.00356585483279, -0.00170015867226, -0.00111734392995, "(0.001, 0.0, 0.0, 0.0, 0.001, 0.0, 0.0, 0.0, 0.001)", -0.140623192365, 0.774150419742, 0.259843621019, "(0.001, 0.0, 0.0, 0.0, 0.001, 0.0, 0.0, 0.0, 0.001)"
1637149248131693478, 9881, 1636513054, 721512079, base_link, -0.00598824744822, -0.0144816779962, -0.999849358061, -0.00746210962099, "(0.0002226800509636008, 0.0, 0.0, 0.0, 0.0002213078624458166, 0.0, 0.0, 0.0, 0.015821789533593034)", -0.00569746052363, -0.00128947242103, -0.00115327119804, "(0.001, 0.0, 0.0, 0.0, 0.001, 0.0, 0.0, 0.0, 0.001)", 0.349667275347, 1.31252967769, -0.273558241315, "(0.001, 0.0, 0.0, 0.0, 0.001, 0.0, 0.0, 0.0, 0.001)"
1637149248152112767, 9882, 1636513054, 742371082, base_link, -0.0059850074645, -0.0144435758625, -0.999849817738, -0.00747694932872, "(0.0002226800509636008, 0.0, 0.0, 0.0, 0.0002213078624458166, 0.0, 0.0, 0.0, 0.015821789533593034)", -0.00490870288889, 0.000204072674876, -0.0013587340285, "(0.001, 0.0, 0.0, 0.0, 0.001, 0.0, 0.0, 0.0, 0.001)", -0.186485912014, 0.7749824285, 0.24494270764, "(0.001, 0.0, 0.0, 0.0, 0.001, 0.0, 0.0, 0.0, 0.001)"
1637149248170717954, 9883, 1636513054, 760865926, base_link, -0.0059715613225, -0.0144168574004, -0.999850339098, -0.00746954368435, "(0.0002226800509636008, 0.0, 0.0, 0.0, 0.0002213078624458166, 0.0, 0.0, 0.0, 0.015821789533593034)", -0.00719754714508, 0.00145158217811, -0.000511478910777, "(0.001, 0.0, 0.0, 0.0, 0.001, 0.0, 0.0, 0.0, 0.001)", 0.462329310004, 1.17705672695, -0.176395124961, "(0.001, 0.0, 0.0, 0.0, 0.001, 0.0, 0.0, 0.0, 0.001)"
1637149248190802150, 9884, 1636513054, 781049013, base_link, -0.00595475449386, -0.0143690690772, -0.999851099654, -0.0074732371536, "(0.0002226800509636008, 0.0, 0.0, 0.0, 0.0002213078624458166, 0.0, 0.0, 0.0, 0.015821789533593034)", -0.00647180319426, 0.00292398888877, -0.000248510397775, "(0.001, 0.0, 0.0, 0.0, 0.001, 0.0, 0.0, 0.0, 0.001)", -0.183168230212, 0.731375637961, 0.15229933293, "(0.001, 0.0, 0.0, 0.0, 0.001, 0.0, 0.0, 0.0, 0.001)"
1637149248211957509, 9885, 1636513054, 802074909, base_link, -0.00594963901226, -0.0143297925553, -0.999851827953, -0.00745526521701, "(0.0002226800509636008, 0.0, 0.0, 0.0, 0.0002213078624458166, 0.0, 0.0, 0.0, 0.015821789533593034)", -0.00953093862813, 0.00157369844062, 0.00207286225185, "(0.001, 0.0, 0.0, 0.0, 0.001, 0.0, 0.0, 0.0, 0.001)", 0.409374643709, 1.10940780104, -0.0219610274177, "(0.001, 0.0, 0.0, 0.0, 0.001, 0.0, 0.0, 0.0, 0.001)"
1637149248231448039, 9886, 1636513054, 821650981, base_link, -0.00592999649943, -0.0142801370433, -0.999852726483, -0.00744568137694, "(0.0002226800509636008, 0.0, 0.0, 0.0, 0.0002213078624458166, 0.0, 0.0, 0.0, 0.015821789533593034)", -0.00757104259918, 0.0027539552137, 0.00156536708454, "(0.001, 0.0, 0.0, 0.0, 0.001, 0.0, 0.0, 0.0, 0.001)", -0.0922522209029, 0.733284353555, 0.105363901295, "(0.001, 0.0, 0.0, 0.0, 0.001, 0.0, 0.0, 0.0, 0.001)"
1637149248251822627, 9887, 1636513054, 841998100, base_link, -0.00592135731513, -0.0142229554777, -0.999853828781, -0.00741391509394, "(0.0002226800509636008, 0.0, 0.0, 0.0, 0.0002213078624458166, 0.0, 0.0, 0.0, 0.015821789533593034)", -0.0126126460892, 0.00292827461801, 0.0053947931811, "(0.001, 0.0, 0.0, 0.0, 0.001, 0.0, 0.0, 0.0, 0.001)", 0.271949707051, 1.03927652281, 0.00262972289117, "(0.001, 0.0, 0.0, 0.0, 0.001, 0.0, 0.0, 0.0, 0.001)"
1637149248270783559, 9888, 1636513054, 860830068, base_link, -0.00590161748587, -0.0141639060089, -0.999854917093, -0.00739590709383, "(0.0002226800509636008, 0.0, 0.0, 0.0, 0.0002213078624458166, 0.0, 0.0, 0.0, 0.015821789533593034)", -0.00898456310649, 0.00271153655962, 0.00331116183572, "(0.001, 0.0, 0.0, 0.0, 0.001, 0.0, 0.0, 0.0, 0.001)", -0.0606298694611, 0.681171569162, -0.0290701377768, "(0.001, 0.0, 0.0, 0.0, 0.001, 0.0, 0.0, 0.0, 0.001)"
1637149248290957374, 9889, 1636513054, 881225109, base_link, -0.00587760239712, -0.0141165018908, -0.999855927432, -0.00736902592092, "(0.0002226800509636008, 0.0, 0.0, 0.0, 0.0002213078624458166, 0.0, 0.0, 0.0, 0.015821789533593034)", -0.0123315872959, 0.00491061439332, 0.00600763156346, "(0.001, 0.0, 0.0, 0.0, 0.001, 0.0, 0.0, 0.0, 0.001)", 0.124060635696, 0.919539297299, 0.0716427801131, "(0.001, 0.0, 0.0, 0.0, 0.001, 0.0, 0.0, 0.0, 0.001)"
1637149248310922161, 9890, 1636513054, 901128053, base_link, -0.00586717473121, -0.0140601253661, -0.999856983311, -0.00734180224195, "(0.0002226800509636008, 0.0, 0.0, 0.0, 0.0002213078624458166, 0.0, 0.0, 0.0, 0.015821789533593034)", -0.00893156177735, 0.00247518612816, 0.00386177734319, "(0.001, 0.0, 0.0, 0.0, 0.001, 0.0, 0.0, 0.0, 0.001)", -0.0450569333406, 0.613846133932, -0.148898650945, "(0.001, 0.0, 0.0, 0.0, 0.001, 0.0, 0.0, 0.0, 0.001)"
1637149248330667711, 9891, 1636513054, 920622110, base_link, -0.00583549448564, -0.0140207467718, -0.999857924528, -0.00731412482686, "(0.0002226800509636008, 0.0, 0.0, 0.0, 0.0002213078624458166, 0.0, 0.0, 0.0, 0.015821789533593034)", -0.0109179368088, 0.00528702170545, 0.00687191146431, "(0.001, 0.0, 0.0, 0.0, 0.001, 0.0, 0.0, 0.0, 0.001)", 0.0602914855646, 0.936723525604, 0.123736797134, "(0.001, 0.0, 0.0, 0.0, 0.001, 0.0, 0.0, 0.0, 0.001)"
1637149248350906855, 9892, 1636513054, 941134929, base_link, -0.00582225047169, -0.0139701479336, -0.999858866747, -0.00729266438448, "(0.0002226800509636008, 0.0, 0.0, 0.0, 0.0002213078624458166, 0.0, 0.0, 0.0, 0.015821789533593034)", -0.00785553361641, 0.00331847678681, 0.00347028201952, "(0.001, 0.0, 0.0, 0.0, 0.001, 0.0, 0.0, 0.0, 0.001)", -0.125169604811, 0.594493547705, -0.267750289422, "(0.001, 0.0, 0.0, 0.0, 0.001, 0.0, 0.0, 0.0, 0.001)"
1637149248372613778, 9893, 1636513054, 961406946, base_link, -0.00579382148889, -0.0139443839261, -0.999859549489, -0.00727097558685, "(0.0002226800509636008, 0.0, 0.0, 0.0, 0.0002213078624458166, 0.0, 0.0, 0.0, 0.015821789533593034)", -0.00877659954527, 0.00514884681768, 0.00581708863688, "(0.001, 0.0, 0.0, 0.0, 0.001, 0.0, 0.0, 0.0, 0.001)", 0.00998471655212, 0.765483475817, 0.1867840178, "(0.001, 0.0, 0.0, 0.0, 0.001, 0.0, 0.0, 0.0, 0.001)"
1637149248390441231, 9894, 1636513054, 980695009, base_link, -0.00578682146338, -0.0139048058873, -0.999860276043, -0.00725241069705, "(0.0002226800509636008, 0.0, 0.0, 0.0, 0.0002213078624458166, 0.0, 0.0, 0.0, 0.015821789533593034)", -0.00609888563746, 0.00276979326488, 0.00281784725981, "(0.001, 0.0, 0.0, 0.0, 0.001, 0.0, 0.0, 0.0, 0.001)", -0.0746156106783, 0.704440324946, -0.328823156791, "(0.001, 0.0, 0.0, 0.0, 0.001, 0.0, 0.0, 0.0, 0.001)"
1637149248410310549, 9895, 1636513055, 531911, base_link, -0.0057608492328, -0.0139008140676, -0.999860598799, -0.00723622507918, "(0.0002226800509636008, 0.0, 0.0, 0.0, 0.0002213078624458166, 0.0, 0.0, 0.0, 0.015821789533593034)", -0.00456934946266, 0.00385480038039, 0.00446305241847, "(0.001, 0.0, 0.0, 0.0, 0.001, 0.0, 0.0, 0.0, 0.001)", -0.0293850632032, 0.882861568035, 0.158122713972, "(0.001, 0.0, 0.0, 0.0, 0.001, 0.0, 0.0, 0.0, 0.001)"
1637149248432186425, 9896, 1636513055, 21984100, base_link, -0.00574186731774, -0.0138732085335, -0.999861205269, -0.00722047387191, "(0.0002226800509636008, 0.0, 0.0, 0.0, 0.0002213078624458166, 0.0, 0.0, 0.0, 0.015821789533593034)", -0.00390260938257, 0.00372974284928, 0.00230347036397, "(0.001, 0.0, 0.0, 0.0, 0.001, 0.0, 0.0, 0.0, 0.001)", 0.0308284265825, 0.649377100243, -0.449565284612, "(0.001, 0.0, 0.0, 0.0, 0.001, 0.0, 0.0, 0.0, 0.001)"
1637149248450388970, 9897, 1636513055, 40501117, base_link, -0.00572236434942, -0.0138826335501, -0.999861328939, -0.00720068914409, "(0.0002226800509636008, 0.0, 0.0, 0.0, 0.0002213078624458166, 0.0, 0.0, 0.0, 0.015821789533593034)", -0.000760641798464, 0.00497361002612, 0.00463697627689, "(0.001, 0.0, 0.0, 0.0, 0.001, 0.0, 0.0, 0.0, 0.001)", -0.295775921549, 0.860571654316, 0.198000470806, "(0.001, 0.0, 0.0, 0.0, 0.001, 0.0, 0.0, 0.0, 0.001)"
1637149248470987142, 9898, 1636513055, 61204910, base_link, -0.00573481022751, -0.013893818466, -0.999861172924, -0.00719087191628, "(0.0002226800509636008, 0.0, 0.0, 0.0, 0.0002213078624458166, 0.0, 0.0, 0.0, 0.015821789533593034)", 0.000469484254823, 5.80119823889e-05, 0.00187192603643, "(0.001, 0.0, 0.0, 0.0, 0.001, 0.0, 0.0, 0.0, 0.001)", -0.00347246456156, 0.691630655831, -0.480649597389, "(0.001, 0.0, 0.0, 0.0, 0.001, 0.0, 0.0, 0.0, 0.001)"
1637149248491180355, 9899, 1636513055, 81291913, base_link, -0.00574297652251, -0.0138905864876, -0.999861300564, -0.00717282806123, "(0.0002226800509636008, 0.0, 0.0, 0.0, 0.0002213078624458166, 0.0, 0.0, 0.0, 0.015821789533593034)", 0.0011214434526, -0.00103501976978, 0.00374302575695, "(0.001, 0.0, 0.0, 0.0, 0.001, 0.0, 0.0, 0.0, 0.001)", -0.402897697188, 0.892123993188, 0.258978466504, "(0.001, 0.0, 0.0, 0.0, 0.001, 0.0, 0.0, 0.0, 0.001)"
1637149248510691054, 9900, 1636513055, 100917100, base_link, -0.00579227893223, -0.0139072395008, -0.999860899577, -0.00715679340901, "(0.0002226800509636008, 0.0, 0.0, 0.0, 0.0002213078624458166, 0.0, 0.0, 0.0, 0.015821789533593034)", 0.00104980943662, -0.00511558714634, 0.00263563222155, "(0.001, 0.0, 0.0, 0.0, 0.001, 0.0, 0.0, 0.0, 0.001)", -0.014953780827, 0.659720710353, -0.42485581108, "(0.001, 0.0, 0.0, 0.0, 0.001, 0.0, 0.0, 0.0, 0.001)"
1637149248530396790, 9901, 1636513055, 120573997, base_link, -0.00582680954333, -0.0139104644994, -0.99986074865, -0.00714356890773, "(0.0002226800509636008, 0.0, 0.0, 0.0, 0.0002213078624458166, 0.0, 0.0, 0.0, 0.015821789533593034)", 0.00226696051503, -0.00882738968572, 0.00354788174264, "(0.001, 0.0, 0.0, 0.0, 0.001, 0.0, 0.0, 0.0, 0.001)", -0.332159121321, 1.10463494867, 0.445463678068, "(0.001, 0.0, 0.0, 0.0, 0.001, 0.0, 0.0, 0.0, 0.001)"
1637149248553441686, 9902, 1636513055, 141855001, base_link, -0.00588287088541, -0.0139183448087, -0.99986051567, -0.00711482333684, "(0.0002226800509636008, 0.0, 0.0, 0.0, 0.0002213078624458166, 0.0, 0.0, 0.0, 0.015821789533593034)", 0.000441619983255, -0.00773801588479, 0.00370974192859, "(0.001, 0.0, 0.0, 0.0, 0.001, 0.0, 0.0, 0.0, 0.001)", 0.0821139640616, 0.755969610864, -0.381792616162, "(0.001, 0.0, 0.0, 0.0, 0.001, 0.0, 0.0, 0.0, 0.001)"
1637149248570348042, 9903, 1636513055, 160527944, base_link, -0.00590570454163, -0.0139054169767, -0.999860677007, -0.00709849337737, "(0.0002226800509636008, 0.0, 0.0, 0.0, 0.0002213078624458166, 0.0, 0.0, 0.0, 0.015821789533593034)", -8.42558649993e-05, -0.00835238010625, 0.0052051736903, "(0.001, 0.0, 0.0, 0.0, 0.001, 0.0, 0.0, 0.0, 0.001)", -0.148366677274, 0.975234272349, 0.357754302353, "(0.001, 0.0, 0.0, 0.0, 0.001, 0.0, 0.0, 0.0, 0.001)"
1637149248590693834, 9904, 1636513055, 180854082, base_link, -0.00594678068737, -0.0139145324426, -0.999860529943, -0.00706698301401, "(0.0002226800509636008, 0.0, 0.0, 0.0, 0.0002213078624458166, 0.0, 0.0, 0.0, 0.015821789533593034)", -3.85075716919e-05, -0.00600878613751, 0.00405640217633, "(0.001, 0.0, 0.0, 0.0, 0.001, 0.0, 0.0, 0.0, 0.001)", 0.172974072663, 0.717123337627, -0.415303743415, "(0.001, 0.0, 0.0, 0.0, 0.001, 0.0, 0.0, 0.0, 0.001)"
1637149248610350454, 9905, 1636513055, 200613975, base_link, -0.00596531009192, -0.0138961287141, -0.999860888526, -0.0070367803508, "(0.0002226800509636008, 0.0, 0.0, 0.0, 0.0002213078624458166, 0.0, 0.0, 0.0, 0.015821789533593034)", -0.00153451070284, -0.00632388905268, 0.00698895365954, "(0.001, 0.0, 0.0, 0.0, 0.001, 0.0, 0.0, 0.0, 0.001)", -0.0604971002954, 0.915596136588, 0.264829717445, "(0.001, 0.0, 0.0, 0.0, 0.001, 0.0, 0.0, 0.0, 0.001)"
1637149248633100791, 9906, 1636513055, 223284006, base_link, -0.00600214316511, -0.0139021250052, -0.999860878015, -0.00699498489886, "(0.0002226800509636008, 0.0, 0.0, 0.0, 0.0002213078624458166, 0.0, 0.0, 0.0, 0.015821789533593034)", 2.37535384595e-05, -0.00512096684409, 0.00603600296775, "(0.001, 0.0, 0.0, 0.0, 0.001, 0.0, 0.0, 0.0, 0.001)", 0.220139691807, 0.67737569105, -0.366839158315, "(0.001, 0.0, 0.0, 0.0, 0.001, 0.0, 0.0, 0.0, 0.001)"
1637149248650615491, 9907, 1636513055, 240789890, base_link, -0.00602853834121, -0.0138840443189, -0.999861253215, -0.006954448735, "(0.0002226800509636008, 0.0, 0.0, 0.0, 0.0002213078624458166, 0.0, 0.0, 0.0, 0.015821789533593034)", -0.00199196868329, -0.00690707773307, 0.0094461559065, "(0.001, 0.0, 0.0, 0.0, 0.001, 0.0, 0.0, 0.0, 0.001)", -0.0316493619973, 1.03314253588, 0.238357463479, "(0.001, 0.0, 0.0, 0.0, 0.001, 0.0, 0.0, 0.0, 0.001)"
1637149248671866204, 9908, 1636513055, 262147903, base_link, -0.0060789698145, -0.0138750262806, -0.999861438603, -0.00690169304389, "(0.0002226800509636008, 0.0, 0.0, 0.0, 0.0002213078624458166, 0.0, 0.0, 0.0, 0.015821789533593034)", -0.00154725136802, -0.0068181718565, 0.00785151731603, "(0.001, 0.0, 0.0, 0.0, 0.001, 0.0, 0.0, 0.0, 0.001)", 0.229145759051, 0.690934002374, -0.22316242647, "(0.001, 0.0, 0.0, 0.0, 0.001, 0.0, 0.0, 0.0, 0.001)"
1637149248690001644, 9909, 1636513055, 280209064, base_link, -0.00610752938014, -0.0138503144371, -0.999861967634, -0.00684927404379, "(0.0002226800509636008, 0.0, 0.0, 0.0, 0.0002213078624458166, 0.0, 0.0, 0.0, 0.015821789533593034)", -0.00376769823869, -0.00798765022256, 0.0123817091718, "(0.001, 0.0, 0.0, 0.0, 0.001, 0.0, 0.0, 0.0, 0.001)", 0.130691723728, 1.07803584715, 0.157064417566, "(0.001, 0.0, 0.0, 0.0, 0.001, 0.0, 0.0, 0.0, 0.001)"
1637149248720364680, 9910, 1636513055, 305474042, base_link, -0.00613158870465, -0.0138401379211, -0.999862391551, -0.00678617446961, "(0.0002226800509636008, 0.0, 0.0, 0.0, 0.0002213078624458166, 0.0, 0.0, 0.0, 0.015821789533593034)", -0.00261784961785, -0.00473599944392, 0.00939150798099, "(0.001, 0.0, 0.0, 0.0, 0.001, 0.0, 0.0, 0.0, 0.001)", 0.308158507927, 0.757655743055, -0.0491227973852, "(0.001, 0.0, 0.0, 0.0, 0.001, 0.0, 0.0, 0.0, 0.001)"
1637149248733131824, 9911, 1636513055, 323369979, base_link, -0.00613565740426, -0.0138019792549, -0.999863179349, -0.00674400915701, "(0.0006036566807952198, 0.0, 0.0, 0.0, 0.0006023059312144086, 0.0, 0.0, 0.0, 0.016243552953697282)", -0.00608257961256, -0.00332207778876, 0.012295310728, "(0.001, 0.0, 0.0, 0.0, 0.001, 0.0, 0.0, 0.0, 0.001)", 0.0602300184367, 1.02480259467, 0.149913870448, "(0.001, 0.0, 0.0, 0.0, 0.001, 0.0, 0.0, 0.0, 0.001)"
1637149248750933992, 9912, 1636513055, 341145992, base_link, -0.00615561841108, -0.0137930327425, -0.999863467609, -0.00670124990235, "(0.0006034762005913269, 0.0, 0.0, 0.0, 0.0006020845183185713, 0.0, 0.0, 0.0, 0.01624324529189125)", -0.00277887931235, -0.00279954317777, 0.00724951287738, "(0.001, 0.0, 0.0, 0.0, 0.001, 0.0, 0.0, 0.0, 0.001)", 0.139268384019, 0.642128842758, 0.0468571536388, "(0.001, 0.0, 0.0, 0.0, 0.001, 0.0, 0.0, 0.0, 0.001)"
1637149248771898376, 9913, 1636513055, 362000942, base_link, -0.00616492011682, -0.0137409615445, -0.99986429873, -0.00667561689182, "(0.0006034762005913269, 0.0, 0.0, 0.0, 0.0006020845183185713, 0.0, 0.0, 0.0, 0.01624324529189125)", -0.00848378600886, -0.0029354072361, 0.00832608736744, "(0.001, 0.0, 0.0, 0.0, 0.001, 0.0, 0.0, 0.0, 0.001)", -0.0504572459253, 1.03212152937, 0.0957848631893, "(0.001, 0.0, 0.0, 0.0, 0.001, 0.0, 0.0, 0.0, 0.001)"
1637149248794274011, 9914, 1636513055, 384408950, base_link, -0.00614431361493, -0.0136996711944, -0.99986512016, -0.00665641852525, "(0.0006034762005913269, 0.0, 0.0, 0.0, 0.0006020845183185713, 0.0, 0.0, 0.0, 0.01624324529189125)", -0.00631032638755, 0.000845480182509, 0.00392511672303, "(0.001, 0.0, 0.0, 0.0, 0.001, 0.0, 0.0, 0.0, 0.001)", 0.332255728017, 0.678628659413, 0.134628297068, "(0.001, 0.0, 0.0, 0.0, 0.001, 0.0, 0.0, 0.0, 0.001)"
1637149248810267448, 9915, 1636513055, 400563001, base_link, -0.00610290632376, -0.0136453535775, -0.999866141536, -0.00665265891755, "(0.0006034762005913269, 0.0, 0.0, 0.0, 0.0006020845183185713, 0.0, 0.0, 0.0, 0.01624324529189125)", -0.0112025271, 0.00726366021021, 0.00301669442454, "(0.001, 0.0, 0.0, 0.0, 0.001, 0.0, 0.0, 0.0, 0.001)", -0.0111172846976, 1.04508999572, -0.0519170369544, "(0.001, 0.0, 0.0, 0.0, 0.001, 0.0, 0.0, 0.0, 0.001)"
1637149248831446653, 9916, 1636513055, 421389102, base_link, -0.00604936021834, -0.0136044887634, -0.999867036379, -0.00665076606253, "(0.0006034762005913269, 0.0, 0.0, 0.0, 0.0006020845183185713, 0.0, 0.0, 0.0, 0.01624324529189125)", -0.00756193732189, 0.00638324732606, 0.000733308248219, "(0.001, 0.0, 0.0, 0.0, 0.001, 0.0, 0.0, 0.0, 0.001)", 0.384011397402, 0.607081176631, 0.186369866149, "(0.001, 0.0, 0.0, 0.0, 0.001, 0.0, 0.0, 0.0, 0.001)"
1637149248850904433, 9917, 1636513055, 441191911, base_link, -0.00599094531858, -0.0135283727557, -0.999868378688, -0.00665710187318, "(0.0006034762005913269, 0.0, 0.0, 0.0, 0.0006020845183185713, 0.0, 0.0, 0.0, 0.01624324529189125)", -0.0147067365372, 0.0134760194295, -0.000548312927861, "(0.001, 0.0, 0.0, 0.0, 0.001, 0.0, 0.0, 0.0, 0.001)", -0.14532458123, 1.09377084094, -0.125129681276, "(0.001, 0.0, 0.0, 0.0, 0.001, 0.0, 0.0, 0.0, 0.001)"
1637149248874627055, 9918, 1636513055, 461061000, base_link, -0.00595604680278, -0.0134723544545, -0.999869401868, -0.00664833669001, "(0.0006034762005913269, 0.0, 0.0, 0.0, 0.0006020845183185713, 0.0, 0.0, 0.0, 0.01624324529189125)", -0.009674725765, 0.0063915979804, 0.000634216456467, "(0.001, 0.0, 0.0, 0.0, 0.001, 0.0, 0.0, 0.0, 0.001)", 0.180845061418, 0.616604451389, 0.232622675544, "(0.001, 0.0, 0.0, 0.0, 0.001, 0.0, 0.0, 0.0, 0.001)"
1637149248890500036, 9919, 1636513055, 480783939, base_link, -0.00592008843285, -0.0133959163327, -0.999870667715, -0.00664453326568, "(0.0006034762005913269, 0.0, 0.0, 0.0, 0.0006020845183185713, 0.0, 0.0, 0.0, 0.01624324529189125)", -0.016905670895, 0.00982148046881, 0.000756516843377, "(0.001, 0.0, 0.0, 0.0, 0.001, 0.0, 0.0, 0.0, 0.001)", -0.0320638865303, 0.858732496502, -0.253246996961, "(0.001, 0.0, 0.0, 0.0, 0.001, 0.0, 0.0, 0.0, 0.001)"
1637149248911328212, 9920, 1636513055, 501524925, base_link, -0.00589205886138, -0.0133393867985, -0.999871747643, -0.00662062434473, "(0.0006034762005913269, 0.0, 0.0, 0.0, 0.0006020845183185713, 0.0, 0.0, 0.0, 0.01624324529189125)", -0.00952488668543, 0.00439807990568, 0.0028355626423, "(0.001, 0.0, 0.0, 0.0, 0.001, 0.0, 0.0, 0.0, 0.001)", 0.0968976939173, 0.588339570324, 0.354414989077, "(0.001, 0.0, 0.0, 0.0, 0.001, 0.0, 0.0, 0.0, 0.001)"
1637149248930530153, 9921, 1636513055, 520719051, base_link, -0.0058844094596, -0.0132868573309, -0.999872662162, -0.00659489254725, "(0.0006034762005913269, 0.0, 0.0, 0.0, 0.0006020845183185713, 0.0, 0.0, 0.0, 0.01624324529189125)", -0.0140757847279, 0.0043717795719, 0.00512427003624, "(0.001, 0.0, 0.0, 0.0, 0.001, 0.0, 0.0, 0.0, 0.001)", 0.0650917633711, 0.750405556788, -0.396498892427, "(0.001, 0.0, 0.0, 0.0, 0.001, 0.0, 0.0, 0.0, 0.001)"
1637149248951558369, 9922, 1636513055, 541764974, base_link, -0.00585260379026, -0.0132569775176, -0.999873494143, -0.00655707905187, "(0.0006034762005913269, 0.0, 0.0, 0.0, 0.0006020845183185713, 0.0, 0.0, 0.0, 0.01624324529189125)", -0.00591382584352, 0.00399521113587, 0.00531308484659, "(0.001, 0.0, 0.0, 0.0, 0.001, 0.0, 0.0, 0.0, 0.001)", 0.104461032404, 0.532836226014, 0.262444893564, "(0.001, 0.0, 0.0, 0.0, 0.001, 0.0, 0.0, 0.0, 0.001)"
1637149248971479576, 9923, 1636513055, 561702013, base_link, -0.00584891101094, -0.0132360463204, -0.999874085957, -0.00651226143607, "(0.0006034762005913269, 0.0, 0.0, 0.0, 0.0006020845183185713, 0.0, 0.0, 0.0, 0.01624324529189125)", -0.00707686225569, 0.00364633688038, 0.00943736171697, "(0.001, 0.0, 0.0, 0.0, 0.001, 0.0, 0.0, 0.0, 0.001)", -0.0349805627319, 0.691981402744, -0.528572989806, "(0.001, 0.0, 0.0, 0.0, 0.001, 0.0, 0.0, 0.0, 0.001)"
1637149248990834294, 9924, 1636513055, 581090927, base_link, -0.00581244948281, -0.0132390882112, -0.999874595684, -0.00646025383863, "(0.0006034762005913269, 0.0, 0.0, 0.0, 0.0006020845183185713, 0.0, 0.0, 0.0, 0.01624324529189125)", -0.00127221189821, 0.00398337424078, 0.0076915801501, "(0.001, 0.0, 0.0, 0.0, 0.001, 0.0, 0.0, 0.0, 0.001)", 0.0795888321648, 0.463784158801, 0.242876722005, "(0.001, 0.0, 0.0, 0.0, 0.001, 0.0, 0.0, 0.0, 0.001)"
1637149249011046723, 9925, 1636513055, 601258993, base_link, -0.00578627103603, -0.0132228746336, -0.999875311271, -0.00640597888859, "(0.0006034762005913269, 0.0, 0.0, 0.0, 0.0006020845183185713, 0.0, 0.0, 0.0, 0.01624324529189125)", -0.00317919496315, 0.00688482350803, 0.0121834539002, "(0.001, 0.0, 0.0, 0.0, 0.001, 0.0, 0.0, 0.0, 0.001)", 0.0687699095592, 0.784561211263, -0.466324476786, "(0.001, 0.0, 0.0, 0.0, 0.001, 0.0, 0.0, 0.0, 0.001)"
1637149249031823546, 9926, 1636513055, 622124910, base_link, -0.00574856567285, -0.0132313818759, -0.999875785364, -0.00634809962641, "(0.0006034762005913269, 0.0, 0.0, 0.0, 0.0006020845183185713, 0.0, 0.0, 0.0, 0.01624324529189125)", 0.000505392792152, 0.00566945297039, 0.00911300447392, "(0.001, 0.0, 0.0, 0.0, 0.001, 0.0, 0.0, 0.0, 0.001)", -0.125812728692, 0.411473482952, 0.295595535379, "(0.001, 0.0, 0.0, 0.0, 0.001, 0.0, 0.0, 0.0, 0.001)"
1637149249050383108, 9927, 1636513055, 640645027, base_link, -0.00573712826656, -0.0132494471271, -0.999876022404, -0.00628309881996, "(0.0006034762005913269, 0.0, 0.0, 0.0, 0.0006020845183185713, 0.0, 0.0, 0.0, 0.01624324529189125)", 0.00216889712431, 0.00564887733515, 0.0141392904428, "(0.001, 0.0, 0.0, 0.0, 0.001, 0.0, 0.0, 0.0, 0.001)", 0.00864779491479, 0.779245386511, -0.534904794982, "(0.001, 0.0, 0.0, 0.0, 0.001, 0.0, 0.0, 0.0, 0.001)"
1637149249071492737, 9928, 1636513055, 661726951, base_link, -0.00571715110004, -0.0132645598699, -0.999876288981, -0.00622674618792, "(0.0006034762005913269, 0.0, 0.0, 0.0, 0.0006020845183185713, 0.0, 0.0, 0.0, 0.01624324529189125)", 0.00291637176638, 0.00332180842515, 0.00971895943177, "(0.001, 0.0, 0.0, 0.0, 0.001, 0.0, 0.0, 0.0, 0.001)", -0.341061719364, 0.379004174977, 0.326174959018, "(0.001, 0.0, 0.0, 0.0, 0.001, 0.0, 0.0, 0.0, 0.001)"
1637149249091685088, 9929, 1636513055, 681889057, base_link, -0.00572484771181, -0.013301155226, -0.999876082252, -0.00617458728758, "(0.0006034762005913269, 0.0, 0.0, 0.0, 0.0006020845183185713, 0.0, 0.0, 0.0, 0.01624324529189125)", 0.0060597319167, 0.00123217741032, 0.013056263262, "(0.001, 0.0, 0.0, 0.0, 0.001, 0.0, 0.0, 0.0, 0.001)", 0.124719303326, 0.67222998655, -0.377937939553, "(0.001, 0.0, 0.0, 0.0, 0.001, 0.0, 0.0, 0.0, 0.001)"
1637149249110722830, 9930, 1636513055, 700963973, base_link, -0.00572305293568, -0.0133293182912, -0.999876043361, -0.00612158899083, "(0.0006034762005913269, 0.0, 0.0, 0.0, 0.0006020845183185713, 0.0, 0.0, 0.0, 0.01624324529189125)", 0.00525021242152, 0.000290251379102, 0.00869423177368, "(0.001, 0.0, 0.0, 0.0, 0.001, 0.0, 0.0, 0.0, 0.001)", -0.37122145963, 0.520818279347, 0.338453468979, "(0.001, 0.0, 0.0, 0.0, 0.001, 0.0, 0.0, 0.0, 0.001)"
1637149249130650881, 9931, 1636513055, 720876932, base_link, -0.00573444256915, -0.0133638622564, -0.999875767795, -0.00608048769523, "(0.0006034762005913269, 0.0, 0.0, 0.0, 0.0006020845183185713, 0.0, 0.0, 0.0, 0.01624324529189125)", 0.00718476630675, -0.00143812341168, 0.0109032169829, "(0.001, 0.0, 0.0, 0.0, 0.001, 0.0, 0.0, 0.0, 0.001)", 0.286919230583, 0.695078158139, -0.293381814135, "(0.001, 0.0, 0.0, 0.0, 0.001, 0.0, 0.0, 0.0, 0.001)"
1637149249151778581, 9932, 1636513055, 742043972, base_link, -0.00570523245678, -0.013391935312, -0.999875726685, -0.00605289833826, "(0.0006034762005913269, 0.0, 0.0, 0.0, 0.0006020845183185713, 0.0, 0.0, 0.0, 0.01624324529189125)", 0.00541718736826, 0.00268662103558, 0.00577498373999, "(0.001, 0.0, 0.0, 0.0, 0.001, 0.0, 0.0, 0.0, 0.001)", -0.260956288325, 0.502122656417, 0.274697415085, "(0.001, 0.0, 0.0, 0.0, 0.001, 0.0, 0.0, 0.0, 0.001)"
1637149249170371509, 9933, 1636513055, 760631084, base_link, -0.00568780430984, -0.0134320871277, -0.999875427244, -0.00602975223811, "(0.0006034762005913269, 0.0, 0.0, 0.0, 0.0006020845183185713, 0.0, 0.0, 0.0, 0.01624324529189125)", 0.0077860333588, 0.00373063560514, 0.00642882400127, "(0.001, 0.0, 0.0, 0.0, 0.001, 0.0, 0.0, 0.0, 0.001)", 0.405120604061, 0.727488216064, -0.45236211251, "(0.001, 0.0, 0.0, 0.0, 0.001, 0.0, 0.0, 0.0, 0.001)"
1637149249191804128, 9934, 1636513055, 781539916, base_link, -0.00568780430984, -0.0134320871277, -0.999875427244, -0.00602975223811, "(0.0006034762005913269, 0.0, 0.0, 0.0, 0.0006020845183185713, 0.0, 0.0, 0.0, 0.01624324529189125)", 0.00590098857705, 0.00588013091919, 0.0016918728582, "(0.001, 0.0, 0.0, 0.0, 0.001, 0.0, 0.0, 0.0, 0.001)", -0.215111671713, 0.460650812719, 0.101972601643, "(0.001, 0.0, 0.0, 0.0, 0.001, 0.0, 0.0, 0.0, 0.001)"
1637149249211942423, 9935, 1636513055, 802143096, base_link, -0.00559791836996, -0.0135122009982, -0.999874874168, -0.00602658616921, "(0.0006034762005913269, 0.0, 0.0, 0.0, 0.0006020845183185713, 0.0, 0.0, 0.0, 0.01624324529189125)", 0.0102907003036, 0.00955203402715, 0.000626071111726, "(0.001, 0.0, 0.0, 0.0, 0.001, 0.0, 0.0, 0.0, 0.001)", 0.497493117356, 1.00000796555, -0.172265293301, "(0.001, 0.0, 0.0, 0.0, 0.001, 0.0, 0.0, 0.0, 0.001)"
1637149249231538861, 9936, 1636513055, 821129083, base_link, -0.00553980395841, -0.0135248639394, -0.999874987688, -0.00603304432, "(0.0006034762005913269, 0.0, 0.0, 0.0, 0.0006020845183185713, 0.0, 0.0, 0.0, 0.01624324529189125)", 0.00339309003694, 0.00912326442565, -0.000204815291055, "(0.001, 0.0, 0.0, 0.0, 0.001, 0.0, 0.0, 0.0, 0.001)", -0.0493862602048, 0.663196094485, 0.293859601777, "(0.001, 0.0, 0.0, 0.0, 0.001, 0.0, 0.0, 0.0, 0.001)"
1637149249252419236, 9937, 1636513055, 842601060, base_link, -0.00547118065422, -0.0135431510392, -0.999875124668, -0.00603194100607, "(0.0006034762005913269, 0.0, 0.0, 0.0, 0.0006020845183185713, 0.0, 0.0, 0.0, 0.01624324529189125)", 0.0046476319875, 0.0145598923272, -0.000573362675063, "(0.001, 0.0, 0.0, 0.0, 0.001, 0.0, 0.0, 0.0, 0.001)", 0.548334507558, 1.07103843648, 0.160879923392, "(0.001, 0.0, 0.0, 0.0, 0.001, 0.0, 0.0, 0.0, 0.001)"
1637149249272380211, 9938, 1636513055, 862606048, base_link, -0.00543033105237, -0.0135344257403, -0.999875368821, -0.00604794586384, "(0.0006034762005913269, 0.0, 0.0, 0.0, 0.0006020845183185713, 0.0, 0.0, 0.0, 0.01624324529189125)", 0.000546713748204, 0.00849842603961, -0.00163471043144, "(0.001, 0.0, 0.0, 0.0, 0.001, 0.0, 0.0, 0.0, 0.001)", -0.39005889976, 0.625314939143, 0.302273508424, "(0.001, 0.0, 0.0, 0.0, 0.001, 0.0, 0.0, 0.0, 0.001)"
1637149249291237511, 9939, 1636513055, 881551980, base_link, -0.00539303733137, -0.0135002374201, -0.999876040569, -0.0060466712367, "(0.0006034762005913269, 0.0, 0.0, 0.0, 0.0006020845183185713, 0.0, 0.0, 0.0, 0.01624324529189125)", -0.00463071826067, 0.00940408607501, -0.00107880985746, "(0.001, 0.0, 0.0, 0.0, 0.001, 0.0, 0.0, 0.0, 0.001)", 0.339684860397, 0.856370705512, 0.332682035035, "(0.001, 0.0, 0.0, 0.0, 0.001, 0.0, 0.0, 0.0, 0.001)"
1637149249311120437, 9940, 1636513055, 901359081, base_link, -0.00535304789988, -0.0134379620085, -0.999877035862, -0.00605633651563, "(0.0006034762005913269, 0.0, 0.0, 0.0, 0.0006020845183185713, 0.0, 0.0, 0.0, 0.01624324529189125)", -0.00762214544028, 0.00685616816343, -0.00126735055689, "(0.001, 0.0, 0.0, 0.0, 0.001, 0.0, 0.0, 0.0, 0.001)", -0.286780450098, 0.544032825059, 0.145893190011, "(0.001, 0.0, 0.0, 0.0, 0.001, 0.0, 0.0, 0.0, 0.001)"
1637149249331972042, 9941, 1636513055, 921864032, base_link, -0.00529657677375, -0.0133873477749, -0.999878051819, -0.00605034577439, "(0.0006034762005913269, 0.0, 0.0, 0.0, 0.0006020845183185713, 0.0, 0.0, 0.0, 0.01624324529189125)", -0.0119097905388, 0.0113184332231, 0.000110482165662, "(0.001, 0.0, 0.0, 0.0, 0.001, 0.0, 0.0, 0.0, 0.001)", 0.514527874005, 0.916031086743, 0.289764947396, "(0.001, 0.0, 0.0, 0.0, 0.001, 0.0, 0.0, 0.0, 0.001)"
1637149249351038672, 9942, 1636513055, 941124916, base_link, -0.00529657677375, -0.0133873477749, -0.999878051819, -0.00605034577439, "(0.0006034762005913269, 0.0, 0.0, 0.0, 0.0006020845183185713, 0.0, 0.0, 0.0, 0.01624324529189125)", -0.0102100745839, 0.0111626306649, -0.00132015472725, "(0.001, 0.0, 0.0, 0.0, 0.001, 0.0, 0.0, 0.0, 0.001)", -0.174734774214, 0.548713423956, -0.0953138329161, "(0.001, 0.0, 0.0, 0.0, 0.001, 0.0, 0.0, 0.0, 0.001)"
1637149249371382479, 9943, 1636513055, 961642980, base_link, -0.00514411775842, -0.0132686328245, -0.99988048486, -0.0060413104033, "(0.0006034762005913269, 0.0, 0.0, 0.0, 0.0006020845183185713, 0.0, 0.0, 0.0, 0.01624324529189125)", -0.0135811006629, 0.0172730128651, 0.00139735774498, "(0.001, 0.0, 0.0, 0.0, 0.001, 0.0, 0.0, 0.0, 0.001)", 0.285952883951, 0.62980206313, 0.106833940787, "(0.001, 0.0, 0.0, 0.0, 0.001, 0.0, 0.0, 0.0, 0.001)"
1637149249390418620, 9944, 1636513055, 980621099, base_link, -0.00510146192699, -0.0132083261562, -0.999881599902, -0.00602506304711, "(0.0006034762005913269, 0.0, 0.0, 0.0, 0.0006020845183185713, 0.0, 0.0, 0.0, 0.01624324529189125)", -0.00938319827926, 0.00892564438127, 0.00228909106117, "(0.001, 0.0, 0.0, 0.0, 0.001, 0.0, 0.0, 0.0, 0.001)", -0.349305215115, 0.691581949527, -0.121144304527, "(0.001, 0.0, 0.0, 0.0, 0.001, 0.0, 0.0, 0.0, 0.001)"
1637149249410170272, 9945, 1636513056, 344038, base_link, -0.00504837668434, -0.0131522034525, -0.999882891804, -0.00597796904921, "(0.0006034762005913269, 0.0, 0.0, 0.0, 0.0006020845183185713, 0.0, 0.0, 0.0, 0.01624324529189125)", -0.0141497743975, 0.0124215419908, 0.00780056172114, "(0.001, 0.0, 0.0, 0.0, 0.001, 0.0, 0.0, 0.0, 0.001)", 0.288752126728, 0.656186247805, -0.0187947004831, "(0.001, 0.0, 0.0, 0.0, 0.001, 0.0, 0.0, 0.0, 0.001)"
1637149249432430726, 9946, 1636513056, 22293090, base_link, -0.00501319326387, -0.0131309316686, -0.999883570171, -0.00594075998226, "(0.0006034762005913269, 0.0, 0.0, 0.0, 0.0006020845183185713, 0.0, 0.0, 0.0, 0.01624324529189125)", -0.0054924817986, 0.00683165497382, 0.00573981357011, "(0.001, 0.0, 0.0, 0.0, 0.001, 0.0, 0.0, 0.0, 0.001)", -0.281382448555, 0.324534482764, -0.424208481052, "(0.001, 0.0, 0.0, 0.0, 0.001, 0.0, 0.0, 0.0, 0.001)"
1637149249450208357, 9947, 1636513056, 40443897, base_link, -0.00494203850643, -0.0131235301238, -0.999884311601, -0.00589174220127, "(0.0006034762005913269, 0.0, 0.0, 0.0, 0.0006020845183185713, 0.0, 0.0, 0.0, 0.01624324529189125)", -0.00387356567856, 0.0127775044472, 0.0104722483005, "(0.001, 0.0, 0.0, 0.0, 0.001, 0.0, 0.0, 0.0, 0.001)", 0.338828535731, 0.63267256435, -0.080300975813, "(0.001, 0.0, 0.0, 0.0, 0.001, 0.0, 0.0, 0.0, 0.001)"
1637149249471147694, 9948, 1636513056, 61418056, base_link, -0.00488968361724, -0.0131279920239, -0.999884674926, -0.00586375876795, "(0.0006034762005913269, 0.0, 0.0, 0.0, 0.0006020845183185713, 0.0, 0.0, 0.0, 0.01624324529189125)", -0.00162133372102, 0.010091842931, 0.00533734646835, "(0.001, 0.0, 0.0, 0.0, 0.001, 0.0, 0.0, 0.0, 0.001)", -0.193756413901, 0.189277698808, -0.573405577659, "(0.001, 0.0, 0.0, 0.0, 0.001, 0.0, 0.0, 0.0, 0.001)"
1637149249490491397, 9949, 1636513056, 80729961, base_link, -0.00482356816651, -0.0131667552211, -0.999884693347, -0.00582835807549, "(0.0006034762005913269, 0.0, 0.0, 0.0, 0.0006020845183185713, 0.0, 0.0, 0.0, 0.01624324529189125)", 0.00574632863129, 0.0140439515258, 0.00837270577804, "(0.001, 0.0, 0.0, 0.0, 0.001, 0.0, 0.0, 0.0, 0.001)", -0.0278872106784, 0.443100846976, -0.0458446787045, "(0.001, 0.0, 0.0, 0.0, 0.001, 0.0, 0.0, 0.0, 0.001)"
1637149249511368210, 9950, 1636513056, 101573944, base_link, -0.00480751466002, -0.0132069028967, -0.999884297907, -0.00581861816487, "(0.0006034762005913269, 0.0, 0.0, 0.0, 0.0006020845183185713, 0.0, 0.0, 0.0, 0.01624324529189125)", 0.00476363182601, 0.00617952135414, 0.00270558915019, "(0.001, 0.0, 0.0, 0.0, 0.001, 0.0, 0.0, 0.0, 0.001)", -0.326310930085, 0.398371931031, -0.597673410466, "(0.001, 0.0, 0.0, 0.0, 0.001, 0.0, 0.0, 0.0, 0.001)"
1637149249530552694, 9951, 1636513056, 120650053, base_link, -0.00479279694655, -0.0132770820456, -0.99988340849, -0.00582388328976, "(0.0006034762005913269, 0.0, 0.0, 0.0, 0.0006020845183185713, 0.0, 0.0, 0.0, 0.01624324529189125)", 0.0134647992148, 0.00541335819896, 0.00168966964077, "(0.001, 0.0, 0.0, 0.0, 0.001, 0.0, 0.0, 0.0, 0.001)", -0.388648968794, 0.55149805036, 0.0271072023352, "(0.001, 0.0, 0.0, 0.0, 0.001, 0.0, 0.0, 0.0, 0.001)"
1637149249552159942, 9952, 1636513056, 142350912, base_link, -0.00481165479001, -0.0133245080703, -0.999882557873, -0.00584601786578, "(0.0006034762005913269, 0.0, 0.0, 0.0, 0.0006020845183185713, 0.0, 0.0, 0.0, 0.01624324529189125)", 0.00806006418873, -0.000686596986614, -0.00237488339901, "(0.001, 0.0, 0.0, 0.0, 0.001, 0.0, 0.0, 0.0, 0.001)", -0.115202620776, 0.484192690265, -0.407906649325, "(0.001, 0.0, 0.0, 0.0, 0.001, 0.0, 0.0, 0.0, 0.001)"
1637149249570272299, 9953, 1636513056, 159982919, base_link, -0.00481165479001, -0.0133245080703, -0.999882557873, -0.00584601786578, "(0.0006034762005913269, 0.0, 0.0, 0.0, 0.0006020845183185713, 0.0, 0.0, 0.0, 0.01624324529189125)", 0.0154546267875, -0.000295236594012, -0.00641380143514, "(0.001, 0.0, 0.0, 0.0, 0.001, 0.0, 0.0, 0.0, 0.001)", -0.123310568966, 0.771032165294, 0.0442643223153, "(0.001, 0.0, 0.0, 0.0, 0.001, 0.0, 0.0, 0.0, 0.001)"
1637149249591073385, 9954, 1636513056, 180869102, base_link, -0.004808927652, -0.0133976701411, -0.999881367504, -0.00588451932309, "(0.0006034762005913269, 0.0, 0.0, 0.0, 0.0006020845183185713, 0.0, 0.0, 0.0, 0.01624324529189125)", 0.00805223631973, -0.00181406278496, -0.00772685797656, "(0.001, 0.0, 0.0, 0.0, 0.001, 0.0, 0.0, 0.0, 0.001)", 0.00522852265995, 0.636967774607, -0.452028018756, "(0.001, 0.0, 0.0, 0.0, 0.001, 0.0, 0.0, 0.0, 0.001)"
1637149249610638051, 9955, 1636513056, 200860023, base_link, -0.00480625781497, -0.013496738419, -0.999879298126, -0.00601058379184, "(0.0006034762005913269, 0.0, 0.0, 0.0, 0.0006020845183185713, 0.0, 0.0, 0.0, 0.01624324529189125)", 0.0132706785181, 0.000305253297004, -0.0145506847025, "(0.001, 0.0, 0.0, 0.0, 0.001, 0.0, 0.0, 0.0, 0.001)", 0.154809619757, 0.705175222219, 0.236360559686, "(0.001, 0.0, 0.0, 0.0, 0.001, 0.0, 0.0, 0.0, 0.001)"
1637149249630751784, 9956, 1636513056, 220892906, base_link, -0.00480703132052, -0.0135561893999, -0.999878091586, -0.00607652405106, "(0.0006034762005913269, 0.0, 0.0, 0.0, 0.0006020845183185713, 0.0, 0.0, 0.0, 0.01624324529189125)", 0.00834128120566, 0.000761670531536, -0.0106286652788, "(0.001, 0.0, 0.0, 0.0, 0.001, 0.0, 0.0, 0.0, 0.001)", 0.141114151305, 0.619148706909, -0.506763322029, "(0.001, 0.0, 0.0, 0.0, 0.001, 0.0, 0.0, 0.0, 0.001)"
1637149249650132573, 9957, 1636513056, 240309000, base_link, -0.00476249965554, -0.0136096421169, -0.999877162591, -0.00614458846923, "(0.0006034762005913269, 0.0, 0.0, 0.0, 0.0006020845183185713, 0.0, 0.0, 0.0, 0.01624324529189125)", 0.0144572976289, 0.00580920281406, -0.0158814025265, "(0.001, 0.0, 0.0, 0.0, 0.001, 0.0, 0.0, 0.0, 0.001)", 0.215971239885, 1.00852295548, 0.244137789811, "(0.001, 0.0, 0.0, 0.0, 0.001, 0.0, 0.0, 0.0, 0.001)"
1637149249671830745, 9958, 1636513056, 262032032, base_link, -0.00473377752706, -0.01367268026, -0.999875984074, -0.00621816990706, "(0.0006034762005913269, 0.0, 0.0, 0.0, 0.0006020845183185713, 0.0, 0.0, 0.0, 0.01624324529189125)", 0.00849959758106, 0.00454512177248, -0.0117543382009, "(0.001, 0.0, 0.0, 0.0, 0.001, 0.0, 0.0, 0.0, 0.001)", 0.271022409881, 0.537298257661, -0.591932509925, "(0.001, 0.0, 0.0, 0.0, 0.001, 0.0, 0.0, 0.0, 0.001)"
1637149249690572224, 9959, 1636513056, 280836105, base_link, -0.00469442503787, -0.0137384067217, -0.99987491186, -0.00627528383745, "(0.0006034762005913269, 0.0, 0.0, 0.0, 0.0006020845183185713, 0.0, 0.0, 0.0, 0.01624324529189125)", 0.0155893012216, 0.00866414808708, -0.0153760387039, "(0.001, 0.0, 0.0, 0.0, 0.001, 0.0, 0.0, 0.0, 0.001)", -0.0498749092247, 0.925883541426, 0.227347056499, "(0.001, 0.0, 0.0, 0.0, 0.001, 0.0, 0.0, 0.0, 0.001)"
1637149249715883279, 9960, 1636513056, 306035041, base_link, -0.00467814420347, -0.0138151758502, -0.999873496128, -0.00634410142658, "(0.0006034762005913269, 0.0, 0.0, 0.0, 0.0006020845183185713, 0.0, 0.0, 0.0, 0.01624324529189125)", 0.0107070720031, 0.00368854256586, -0.0107841997338, "(0.001, 0.0, 0.0, 0.0, 0.001, 0.0, 0.0, 0.0, 0.001)", 0.20663054767, 0.706275858593, -0.409511999144, "(0.001, 0.0, 0.0, 0.0, 0.001, 0.0, 0.0, 0.0, 0.001)"
1637149249731140433, 9961, 1636513056, 320946931, base_link, -0.00465250085571, -0.0138757414597, -0.999872383112, -0.0064058976118, "(0.0006034762005913269, 0.0, 0.0, 0.0, 0.0006020845183185713, 0.0, 0.0, 0.0, 0.01624324529189125)", 0.0161569796438, 0.00648927838823, -0.0152515157586, "(0.001, 0.0, 0.0, 0.0, 0.001, 0.0, 0.0, 0.0, 0.001)", -0.27682595428, 0.993364361301, 0.340302685954, "(0.001, 0.0, 0.0, 0.0, 0.001, 0.0, 0.0, 0.0, 0.001)"
1637149249751595214, 9962, 1636513056, 341773986, base_link, -0.00464427691717, -0.0139421069205, -0.999871098704, -0.00646794573726, "(0.0006989037120991443, 0.0, 0.0, 0.0, 0.0006971629968042237, 0.0, 0.0, 0.0, 0.01636584481496417)", 0.0101969926735, 0.00151869085228, -0.0103325368006, "(0.001, 0.0, 0.0, 0.0, 0.001, 0.0, 0.0, 0.0, 0.001)", 0.239137447331, 0.646134359645, -0.251526206661, "(0.001, 0.0, 0.0, 0.0, 0.001, 0.0, 0.0, 0.0, 0.001)"
1637149249770662090, 9963, 1636513056, 360857009, base_link, -0.00462396364285, -0.0139822505709, -0.999870099787, -0.00654974658208, "(0.0006989037120991443, 0.0, 0.0, 0.0, 0.0006971629968042237, 0.0, 0.0, 0.0, 0.01636584481496417)", 0.0119544523025, 0.00399719404581, -0.0172436231358, "(0.001, 0.0, 0.0, 0.0, 0.001, 0.0, 0.0, 0.0, 0.001)", -0.371658565487, 0.924660596399, 0.259451539595, "(0.001, 0.0, 0.0, 0.0, 0.001, 0.0, 0.0, 0.0, 0.001)"
1637149249791927139, 9964, 1636513056, 382198095, base_link, -0.00462792462394, -0.0140447190364, -0.999868758135, -0.006617755465, "(0.0006989037120991443, 0.0, 0.0, 0.0, 0.0006971629968042237, 0.0, 0.0, 0.0, 0.01636584481496417)", 0.00920656176406, 0.00027153884894, -0.0116457368374, "(0.001, 0.0, 0.0, 0.0, 0.001, 0.0, 0.0, 0.0, 0.001)", 0.30242655003, 0.551560479216, -0.219698439596, "(0.001, 0.0, 0.0, 0.0, 0.001, 0.0, 0.0, 0.0, 0.001)"
1637149249810530240, 9965, 1636513056, 400676965, base_link, -0.00461614305504, -0.0140964737376, -0.999867462411, -0.0067110552387, "(0.0006989037120991443, 0.0, 0.0, 0.0, 0.0006971629968042237, 0.0, 0.0, 0.0, 0.01636584481496417)", 0.013176116886, 0.00175057393167, -0.0196239269821, "(0.001, 0.0, 0.0, 0.0, 0.001, 0.0, 0.0, 0.0, 0.001)", -0.325597310345, 0.969148024235, 0.11976399124, "(0.001, 0.0, 0.0, 0.0, 0.001, 0.0, 0.0, 0.0, 0.001)"
1637149249831413555, 9966, 1636513056, 421278953, base_link, -0.0046148517047, -0.0141395814955, -0.999866260599, -0.00679972750258, "(0.0006989037120991443, 0.0, 0.0, 0.0, 0.0006971629968042237, 0.0, 0.0, 0.0, 0.01636584481496417)", 0.00781680588377, 0.000117061870637, -0.0142174769139, "(0.001, 0.0, 0.0, 0.0, 0.001, 0.0, 0.0, 0.0, 0.001)", 0.347034752389, 0.799461654518, -0.170598359216, "(0.001, 0.0, 0.0, 0.0, 0.001, 0.0, 0.0, 0.0, 0.001)"
1637149249850780121, 9967, 1636513056, 440970897, base_link, -0.00462693298454, -0.0141751909798, -0.999864891897, -0.00691761552292, "(0.0006989037120991443, 0.0, 0.0, 0.0, 0.0006971629968042237, 0.0, 0.0, 0.0, 0.01636584481496417)", 0.0100297553041, -0.000924118569248, -0.0246496600145, "(0.001, 0.0, 0.0, 0.0, 0.001, 0.0, 0.0, 0.0, 0.001)", -0.334518076261, 1.05460380702, 0.0413238262781, "(0.001, 0.0, 0.0, 0.0, 0.001, 0.0, 0.0, 0.0, 0.001)"
1637149249871031587, 9968, 1636513056, 461235046, base_link, -0.0046323621315, -0.0142124151915, -0.999863568978, -0.00702793750992, "(0.0006989037120991443, 0.0, 0.0, 0.0, 0.0006971629968042237, 0.0, 0.0, 0.0, 0.01636584481496417)", 0.00551284383142, -0.00169096120659, -0.0177579828046, "(0.001, 0.0, 0.0, 0.0, 0.001, 0.0, 0.0, 0.0, 0.001)", 0.261590679097, 0.653231541221, 0.0060723945363, "(0.001, 0.0, 0.0, 0.0, 0.001, 0.0, 0.0, 0.0, 0.001)"
1637149249890910418, 9969, 1636513056, 481132984, base_link, -0.00465750073746, -0.0142209140325, -0.999862283054, -0.00717552909692, "(0.0006989037120991443, 0.0, 0.0, 0.0, 0.0006971629968042237, 0.0, 0.0, 0.0, 0.01636584481496417)", 0.00560780410216, -0.00363605869662, -0.0310724599969, "(0.001, 0.0, 0.0, 0.0, 0.001, 0.0, 0.0, 0.0, 0.001)", -0.479170664345, 0.955693829952, -0.0549520377255, "(0.001, 0.0, 0.0, 0.0, 0.001, 0.0, 0.0, 0.0, 0.001)"
1637149249911864215, 9970, 1636513056, 502130985, base_link, -0.00469663056084, -0.0142475380886, -0.999860685618, -0.00731837929219, "(0.0006989037120991443, 0.0, 0.0, 0.0, 0.0006971629968042237, 0.0, 0.0, 0.0, 0.01636584481496417)", 0.00345726382318, -0.0058198908389, -0.022340224804, "(0.001, 0.0, 0.0, 0.0, 0.001, 0.0, 0.0, 0.0, 0.001)", 0.194499124288, 0.726771092639, 0.225738776003, "(0.001, 0.0, 0.0, 0.0, 0.001, 0.0, 0.0, 0.0, 0.001)"
1637149249930821947, 9971, 1636513056, 520534992, base_link, -0.00478079799748, -0.0142127489771, -0.999859470384, -0.00749541329881, "(0.0006989037120991443, 0.0, 0.0, 0.0, 0.0006971629968042237, 0.0, 0.0, 0.0, 0.01636584481496417)", -0.00215253610454, -0.0142853958479, -0.0380658051094, "(0.001, 0.0, 0.0, 0.0, 0.001, 0.0, 0.0, 0.0, 0.001)", -0.699095790622, 1.0669339159, 0.158799112689, "(0.001, 0.0, 0.0, 0.0, 0.001, 0.0, 0.0, 0.0, 0.001)"
1637149249951307975, 9972, 1636513056, 541563987, base_link, -0.00487426285008, -0.0142184645922, -0.999857686872, -0.00766047185087, "(0.0006989037120991443, 0.0, 0.0, 0.0, 0.0006971629968042237, 0.0, 0.0, 0.0, 0.01636584481496417)", -0.000707732655504, -0.0142984837185, -0.0263437971491, "(0.001, 0.0, 0.0, 0.0, 0.001, 0.0, 0.0, 0.0, 0.001)", -0.0436578328439, 0.623195867167, 0.329522947022, "(0.001, 0.0, 0.0, 0.0, 0.001, 0.0, 0.0, 0.0, 0.001)"
1637149249972134704, 9973, 1636513056, 562278985, base_link, -0.00498724115215, -0.0141611317549, -0.999856425707, -0.00785606427209, "(0.0006989037120991443, 0.0, 0.0, 0.0, 0.0006971629968042237, 0.0, 0.0, 0.0, 0.01636584481496417)", -0.00719452910531, -0.0247637120691, -0.0431234002038, "(0.001, 0.0, 0.0, 0.0, 0.001, 0.0, 0.0, 0.0, 0.001)", -0.278822620001, 1.09531237271, 0.121006648695, "(0.001, 0.0, 0.0, 0.0, 0.001, 0.0, 0.0, 0.0, 0.001)"
1637149249991015525, 9974, 1636513056, 581232070, base_link, -0.00509474598223, -0.0141257438636, -0.999854864169, -0.00804720584184, "(0.0006989037120991443, 0.0, 0.0, 0.0, 0.0006971629968042237, 0.0, 0.0, 0.0, 0.01636584481496417)", -0.00627032027895, -0.0179277327274, -0.0297023622048, "(0.001, 0.0, 0.0, 0.0, 0.001, 0.0, 0.0, 0.0, 0.001)", -0.0609412846508, 0.541661402274, 0.283339713751, "(0.001, 0.0, 0.0, 0.0, 0.001, 0.0, 0.0, 0.0, 0.001)"
1637149250010623376, 9975, 1636513056, 600891113, base_link, -0.00519946233217, -0.0140796678354, -0.999853237969, -0.00826020990066, "(0.0006989037120991443, 0.0, 0.0, 0.0, 0.0006971629968042237, 0.0, 0.0, 0.0, 0.01636584481496417)", -0.0100189443764, -0.0261032408001, -0.048460174912, "(0.001, 0.0, 0.0, 0.0, 0.001, 0.0, 0.0, 0.0, 0.001)", 0.0500159379978, 0.878321088808, -0.171964465532, "(0.001, 0.0, 0.0, 0.0, 0.001, 0.0, 0.0, 0.0, 0.001)"
1637149250032241107, 9976, 1636513056, 621494054, base_link, -0.00528081544643, -0.0140461922037, -0.999851645262, -0.00845605938532, "(0.0006989037120991443, 0.0, 0.0, 0.0, 0.0006971629968042237, 0.0, 0.0, 0.0, 0.01636584481496417)", -0.00590194575805, -0.0149374269835, -0.0314804371663, "(0.001, 0.0, 0.0, 0.0, 0.001, 0.0, 0.0, 0.0, 0.001)", 0.0141871747562, 0.548784271699, 0.37404968509, "(0.001, 0.0, 0.0, 0.0, 0.001, 0.0, 0.0, 0.0, 0.001)"
1637149250050190688, 9977, 1636513056, 640368938, base_link, -0.00539679301837, -0.0140051795021, -0.999849675945, -0.00868073067514, "(0.0006989037120991443, 0.0, 0.0, 0.0, 0.0006971629968042237, 0.0, 0.0, 0.0, 0.01636584481496417)", -0.00963828880951, -0.0255719026334, -0.0508165807746, "(0.001, 0.0, 0.0, 0.0, 0.001, 0.0, 0.0, 0.0, 0.001)", 0.0578001090476, 0.859346391576, -0.268452364849, "(0.001, 0.0, 0.0, 0.0, 0.001, 0.0, 0.0, 0.0, 0.001)"
1637149250071984141, 9978, 1636513056, 661959886, base_link, -0.00547939296524, -0.0139710503076, -0.999847850746, -0.00889164576836, "(0.0006989037120991443, 0.0, 0.0, 0.0, 0.0006971629968042237, 0.0, 0.0, 0.0, 0.01636584481496417)", -0.0051828217312, -0.0155291414202, -0.0335107612601, "(0.001, 0.0, 0.0, 0.0, 0.001, 0.0, 0.0, 0.0, 0.001)", 0.157183972068, 0.515565468452, 0.324149510951, "(0.001, 0.0, 0.0, 0.0, 0.001, 0.0, 0.0, 0.0, 0.001)"
1637149250092074430, 9979, 1636513056, 682254076, base_link, -0.00559640778706, -0.0139345071227, -0.999845645844, -0.0091210864303, "(0.0006989037120991443, 0.0, 0.0, 0.0, 0.0006971629968042237, 0.0, 0.0, 0.0, 0.01636584481496417)", -0.00981530548631, -0.0255157499377, -0.0528421862661, "(0.001, 0.0, 0.0, 0.0, 0.001, 0.0, 0.0, 0.0, 0.001)", 0.0878011958587, 0.713837071336, -0.438332199423, "(0.001, 0.0, 0.0, 0.0, 0.001, 0.0, 0.0, 0.0, 0.001)"
1637149250113086312, 9980, 1636513056, 701062917, base_link, -0.00570321053104, -0.013911098716, -0.999843288307, -0.00934631205636, "(0.0006989037120991443, 0.0, 0.0, 0.0, 0.0006971629968042237, 0.0, 0.0, 0.0, 0.01636584481496417)", -0.00385243235413, -0.017881411091, -0.0353537640257, "(0.001, 0.0, 0.0, 0.0, 0.001, 0.0, 0.0, 0.0, 0.001)", 0.0251993691734, 0.44018400323, 0.380720746248, "(0.001, 0.0, 0.0, 0.0, 0.001, 0.0, 0.0, 0.0, 0.001)"
1637149250132284993, 9981, 1636513056, 722451925, base_link, -0.00585902462098, -0.0138705131345, -0.999840681423, -0.00958605589032, "(0.0006989037120991443, 0.0, 0.0, 0.0, 0.0006971629968042237, 0.0, 0.0, 0.0, 0.01636584481496417)", -0.0082381902214, -0.0326789753654, -0.0555817267921, "(0.001, 0.0, 0.0, 0.0, 0.001, 0.0, 0.0, 0.0, 0.001)", 0.0858178071401, 0.964835479342, -0.381102260262, "(0.001, 0.0, 0.0, 0.0, 0.001, 0.0, 0.0, 0.0, 0.001)"
1637149250153183540, 9982, 1636513056, 743379116, base_link, -0.00600506827111, -0.0138410437774, -0.999837853042, -0.00983017220756, "(0.0006989037120991443, 0.0, 0.0, 0.0, 0.0006971629968042237, 0.0, 0.0, 0.0, 0.01636584481496417)", -0.00486229067994, -0.0235841339673, -0.0377788726301, "(0.001, 0.0, 0.0, 0.0, 0.001, 0.0, 0.0, 0.0, 0.001)", -0.168686172432, 0.467945503204, 0.348747196524, "(0.001, 0.0, 0.0, 0.0, 0.001, 0.0, 0.0, 0.0, 0.001)"
1637149250170403294, 9983, 1636513056, 760535001, base_link, -0.0061699281549, -0.0138098238776, -0.999834542969, -0.0101048224371, "(0.0006989037120991443, 0.0, 0.0, 0.0, 0.0006971629968042237, 0.0, 0.0, 0.0, 0.01636584481496417)", -0.00833112918164, -0.0387996456961, -0.0619886306292, "(0.001, 0.0, 0.0, 0.0, 0.001, 0.0, 0.0, 0.0, 0.001)", 0.308381416183, 0.730559773239, -0.427420935928, "(0.001, 0.0, 0.0, 0.0, 0.001, 0.0, 0.0, 0.0, 0.001)"
1637149250190847559, 9984, 1636513056, 781085968, base_link, -0.0062972654731, -0.0137811104442, -0.999831188405, -0.010393273566, "(0.0006989037120991443, 0.0, 0.0, 0.0, 0.0006971629968042237, 0.0, 0.0, 0.0, 0.01636584481496417)", -0.00406817606432, -0.0229025920712, -0.0439094751849, "(0.001, 0.0, 0.0, 0.0, 0.001, 0.0, 0.0, 0.0, 0.001)", -0.0190739936543, 0.473091380311, 0.262695009235, "(0.001, 0.0, 0.0, 0.0, 0.001, 0.0, 0.0, 0.0, 0.001)"
1637149250211841129, 9985, 1636513056, 802064895, base_link, -0.00641658060971, -0.0137746307786, -0.999827372464, -0.0106916935911, "(0.0006989037120991443, 0.0, 0.0, 0.0, 0.0006971629968042237, 0.0, 0.0, 0.0, 0.01636584481496417)", -0.00493748714367, -0.0320365237627, -0.0695263953147, "(0.001, 0.0, 0.0, 0.0, 0.001, 0.0, 0.0, 0.0, 0.001)", 0.525705072398, 0.877884956161, -0.546220069483, "(0.001, 0.0, 0.0, 0.0, 0.001, 0.0, 0.0, 0.0, 0.001)"
1637149250231404485, 9986, 1636513056, 820919036, base_link, -0.00651852797056, -0.0137480767475, -0.999823601272, -0.0110120624294, "(0.0006989037120991443, 0.0, 0.0, 0.0, 0.0006971629968042237, 0.0, 0.0, 0.0, 0.01636584481496417)", -0.00309441576558, -0.0179601585777, -0.0488389295648, "(0.001, 0.0, 0.0, 0.0, 0.001, 0.0, 0.0, 0.0, 0.001)", -0.107611604287, 0.550239919781, 0.276493246952, "(0.001, 0.0, 0.0, 0.0, 0.001, 0.0, 0.0, 0.0, 0.001)"
1637149250251150577, 9987, 1636513056, 840739965, base_link, -0.00662192383765, -0.0137332883058, -0.99981939886, -0.0113453329958, "(0.0006989037120991443, 0.0, 0.0, 0.0, 0.0006971629968042237, 0.0, 0.0, 0.0, 0.01636584481496417)", -0.00542208954289, -0.0270700120137, -0.0776502306569, "(0.001, 0.0, 0.0, 0.0, 0.001, 0.0, 0.0, 0.0, 0.001)", 0.504066799582, 0.815138968807, -0.492001889803, "(0.001, 0.0, 0.0, 0.0, 0.001, 0.0, 0.0, 0.0, 0.001)"
1637149250271773696, 9988, 1636513056, 862036943, base_link, -0.00670486242927, -0.0137008455912, -0.999815194339, -0.0117008042159, "(0.0006989037120991443, 0.0, 0.0, 0.0, 0.0006971629968042237, 0.0, 0.0, 0.0, 0.01636584481496417)", -0.00397705009102, -0.0151963080639, -0.0543409771576, "(0.001, 0.0, 0.0, 0.0, 0.001, 0.0, 0.0, 0.0, 0.001)", -0.175928730682, 0.537374265984, 0.283737817602, "(0.001, 0.0, 0.0, 0.0, 0.001, 0.0, 0.0, 0.0, 0.001)"
1637149250290013017, 9989, 1636513056, 880309104, base_link, -0.00678628852949, -0.0136744374987, -0.99981058397, -0.0120727887801, "(0.0006989037120991443, 0.0, 0.0, 0.0, 0.0006971629968042237, 0.0, 0.0, 0.0, 0.01636584481496417)", -0.00661028381931, -0.0217624719001, -0.0862848192012, "(0.001, 0.0, 0.0, 0.0, 0.001, 0.0, 0.0, 0.0, 0.001)", 0.582601284178, 0.835554755949, -0.30720456646, "(0.001, 0.0, 0.0, 0.0, 0.001, 0.0, 0.0, 0.0, 0.001)"
1637149250311011189, 9990, 1636513056, 901232004, base_link, -0.00685714068004, -0.0136314056893, -0.999805987983, -0.0124559541469, "(0.0006989037120991443, 0.0, 0.0, 0.0, 0.0006971629968042237, 0.0, 0.0, 0.0, 0.01636584481496417)", -0.00588920306507, -0.0127240195813, -0.0596784128116, "(0.001, 0.0, 0.0, 0.0, 0.001, 0.0, 0.0, 0.0, 0.001)", -0.0971429178933, 0.527949003493, 0.317700190885, "(0.001, 0.0, 0.0, 0.0, 0.001, 0.0, 0.0, 0.0, 0.001)"
1637149250331996538, 9991, 1636513056, 921919107, base_link, -0.00692189321744, -0.0135888028375, -0.999801156031, -0.012848355193, "(0.0006989037120991443, 0.0, 0.0, 0.0, 0.0006971629968042237, 0.0, 0.0, 0.0, 0.01636584481496417)", -0.0106976317736, -0.0185664516561, -0.0925488175723, "(0.001, 0.0, 0.0, 0.0, 0.001, 0.0, 0.0, 0.0, 0.001)", 0.527813547216, 0.886594314279, -0.0183421547616, "(0.001, 0.0, 0.0, 0.0, 0.001, 0.0, 0.0, 0.0, 0.001)"
1637149250351262968, 9992, 1636513056, 941229104, base_link, -0.00700253139645, -0.0135341598935, -0.999795973856, -0.0132590245431, "(0.0006989037120991443, 0.0, 0.0, 0.0, 0.0006971629968042237, 0.0, 0.0, 0.0, 0.01636584481496417)", -0.00785824198059, -0.0126890701972, -0.0637855144242, "(0.001, 0.0, 0.0, 0.0, 0.001, 0.0, 0.0, 0.0, 0.001)", -0.312090437697, 0.523034499273, 0.201087623978, "(0.001, 0.0, 0.0, 0.0, 0.001, 0.0, 0.0, 0.0, 0.001)"
1637149250370655104, 9993, 1636513056, 960812091, base_link, -0.00709354335644, -0.0134896566706, -0.999790194692, -0.0136849334442, "(0.0006989037120991443, 0.0, 0.0, 0.0, 0.0006971629968042237, 0.0, 0.0, 0.0, 0.01636584481496417)", -0.0116056008204, -0.0221967628341, -0.0991371148644, "(0.001, 0.0, 0.0, 0.0, 0.001, 0.0, 0.0, 0.0, 0.001)", 0.499462185181, 0.774468696236, -0.0841397957417, "(0.001, 0.0, 0.0, 0.0, 0.001, 0.0, 0.0, 0.0, 0.001)"
1637149250391259326, 9994, 1636513056, 981542110, base_link, -0.00716299759182, -0.0134154449387, -0.999784402008, -0.0141374256269, "(0.0006989037120991443, 0.0, 0.0, 0.0, 0.0006971629968042237, 0.0, 0.0, 0.0, 0.01636584481496417)", -0.0106026900733, -0.0127288618702, -0.0700794642745, "(0.001, 0.0, 0.0, 0.0, 0.001, 0.0, 0.0, 0.0, 0.001)", -0.13697500975, 0.571232123306, 0.0563202463183, "(0.001, 0.0, 0.0, 0.0, 0.001, 0.0, 0.0, 0.0, 0.001)"
1637149250410283468, 9995, 1636513057, 400066, base_link, -0.00722614952752, -0.0133693409442, -0.999777850101, -0.0146045860394, "(0.0006989037120991443, 0.0, 0.0, 0.0, 0.0006971629968042237, 0.0, 0.0, 0.0, 0.01636584481496417)", -0.0137929657039, -0.0191027569139, -0.108839686103, "(0.001, 0.0, 0.0, 0.0, 0.001, 0.0, 0.0, 0.0, 0.001)", 0.614762157777, 0.681172698897, -0.0916792738707, "(0.001, 0.0, 0.0, 0.0, 0.001, 0.0, 0.0, 0.0, 0.001)"
1637149250431403617, 9996, 1636513057, 21711111, base_link, -0.00728881333728, -0.0133082155128, -0.999770940781, -0.0150940574373, "(0.0006989037120991443, 0.0, 0.0, 0.0, 0.0006971629968042237, 0.0, 0.0, 0.0, 0.01636584481496417)", -0.00974249992096, -0.0108472345443, -0.0763207848965, "(0.001, 0.0, 0.0, 0.0, 0.001, 0.0, 0.0, 0.0, 0.001)", 0.0513818106272, 0.544213473356, -0.031674877171, "(0.001, 0.0, 0.0, 0.0, 0.001, 0.0, 0.0, 0.0, 0.001)"
1637149250451081552, 9997, 1636513057, 41337966, base_link, -0.00732432612269, -0.0132549478223, -0.999763567249, -0.0156035318652, "(0.0006989037120991443, 0.0, 0.0, 0.0, 0.0006971629968042237, 0.0, 0.0, 0.0, 0.01636584481496417)", -0.0140195255778, -0.0129889970809, -0.118544202235, "(0.001, 0.0, 0.0, 0.0, 0.001, 0.0, 0.0, 0.0, 0.001)", 0.453333698692, 0.673559069612, -0.0783854379173, "(0.001, 0.0, 0.0, 0.0, 0.001, 0.0, 0.0, 0.0, 0.001)"
1637149250471317019, 9998, 1636513057, 61480998, base_link, -0.00736134995613, -0.0131901276213, -0.999755741804, -0.0161334369944, "(0.0006989037120991443, 0.0, 0.0, 0.0, 0.0006971629968042237, 0.0, 0.0, 0.0, 0.01636584481496417)", -0.0101925351983, -0.00746851794558, -0.0830136380159, "(0.001, 0.0, 0.0, 0.0, 0.001, 0.0, 0.0, 0.0, 0.001)", 0.0229469144148, 0.442855145881, -0.0962152683455, "(0.001, 0.0, 0.0, 0.0, 0.001, 0.0, 0.0, 0.0, 0.001)"
1637149250494913608, 9999, 1636513057, 85140943, base_link, -0.0073918704482, -0.0131387516441, -0.999747264556, -0.0166775438758, "(0.0006989037120991443, 0.0, 0.0, 0.0, 0.0006971629968042237, 0.0, 0.0, 0.0, 0.01636584481496417)", -0.0142867176596, -0.0116648189856, -0.127690953096, "(0.001, 0.0, 0.0, 0.0, 0.001, 0.0, 0.0, 0.0, 0.001)", 0.461730330088, 0.699727661985, 0.00134777651152, "(0.001, 0.0, 0.0, 0.0, 0.001, 0.0, 0.0, 0.0, 0.001)"
1637149250511035539, 10000, 1636513057, 101197957, base_link, -0.00745389574312, -0.0130839731475, -0.999737822232, -0.0172492285031, "(0.0006989037120991443, 0.0, 0.0, 0.0, 0.0006971629968042237, 0.0, 0.0, 0.0, 0.01636584481496417)", -0.00964917475871, -0.00872678233887, -0.0890304429811, "(0.001, 0.0, 0.0, 0.0, 0.001, 0.0, 0.0, 0.0, 0.001)", 0.0204621141522, 0.476923297262, -0.167696643216, "(0.001, 0.0, 0.0, 0.0, 0.001, 0.0, 0.0, 0.0, 0.001)"
1637149250530411587, 10001, 1636513057, 120327949, base_link, -0.00747015778666, -0.013045271575, -0.999728038724, -0.0178288031583, "(0.0006989037120991443, 0.0, 0.0, 0.0, 0.0006971629968042237, 0.0, 0.0, 0.0, 0.01636584481496417)", -0.0116870966833, -0.0104138600275, -0.136687467638, "(0.001, 0.0, 0.0, 0.0, 0.001, 0.0, 0.0, 0.0, 0.001)", 0.718492644098, 0.660806641261, 0.0982337457935, "(0.001, 0.0, 0.0, 0.0, 0.001, 0.0, 0.0, 0.0, 0.001)"
1637149250551091750, 10002, 1636513057, 141289949, base_link, -0.00746882371193, -0.0129911307593, -0.999718023592, -0.0184206541457, "(0.0006989037120991443, 0.0, 0.0, 0.0, 0.0006971629968042237, 0.0, 0.0, 0.0, 0.01636584481496417)", -0.00853106913035, -0.00269082058639, -0.0937390288475, "(0.001, 0.0, 0.0, 0.0, 0.001, 0.0, 0.0, 0.0, 0.001)", 0.458535214237, 0.445668714245, -0.200466939849, "(0.001, 0.0, 0.0, 0.0, 0.001, 0.0, 0.0, 0.0, 0.001)"
1637149250570254112, 10003, 1636513057, 160456895, base_link, -0.00742584099439, -0.0129794925362, -0.999707388009, -0.0190138901814, "(0.0006989037120991443, 0.0, 0.0, 0.0, 0.0006971629968042237, 0.0, 0.0, 0.0, 0.01636584481496417)", -0.00819039070655, 0.00209138881685, -0.141042266799, "(0.001, 0.0, 0.0, 0.0, 0.001, 0.0, 0.0, 0.0, 0.001)", 0.772770319555, 0.410866621219, 0.092368201407, "(0.001, 0.0, 0.0, 0.0, 0.001, 0.0, 0.0, 0.0, 0.001)"
1637149250591021485, 10004, 1636513057, 181256055, base_link, -0.00739270577179, -0.0129597288797, -0.999696012982, -0.0196284221494, "(0.0006989037120991443, 0.0, 0.0, 0.0, 0.0006971629968042237, 0.0, 0.0, 0.0, 0.01636584481496417)", -0.00443208162711, 0.00400441427354, -0.0972130567082, "(0.001, 0.0, 0.0, 0.0, 0.001, 0.0, 0.0, 0.0, 0.001)", 0.486636776818, 0.454326360736, -0.375155121489, "(0.001, 0.0, 0.0, 0.0, 0.001, 0.0, 0.0, 0.0, 0.001)"
1637149250610737415, 10005, 1636513057, 200936079, base_link, -0.00733194464179, -0.012961269657, -0.999684238355, -0.0202403473573, "(0.0006989037120991443, 0.0, 0.0, 0.0, 0.0006971629968042237, 0.0, 0.0, 0.0, 0.01636584481496417)", -0.00352296807461, 0.00936497788219, -0.146167683924, "(0.001, 0.0, 0.0, 0.0, 0.001, 0.0, 0.0, 0.0, 0.001)", 0.361745272165, 0.314710870337, 0.125226685828, "(0.001, 0.0, 0.0, 0.0, 0.001, 0.0, 0.0, 0.0, 0.001)"
1637149250631973152, 10006, 1636513057, 221389055, base_link, -0.00726892964595, -0.0129700559639, -0.999671514893, -0.0208758861261, "(0.0006989037120991443, 0.0, 0.0, 0.0, 0.0006971629968042237, 0.0, 0.0, 0.0, 0.01636584481496417)", -0.000399758183417, 0.00783474406462, -0.100574933003, "(0.001, 0.0, 0.0, 0.0, 0.001, 0.0, 0.0, 0.0, 0.001)", 0.57896372823, 0.434938095522, -0.370041546868, "(0.001, 0.0, 0.0, 0.0, 0.001, 0.0, 0.0, 0.0, 0.001)"
1637149250650340784, 10007, 1636513057, 240535020, base_link, -0.00715085585648, -0.0129957037014, -0.999658243288, -0.0215261137059, "(0.0006989037120991443, 0.0, 0.0, 0.0, 0.0006971629968042237, 0.0, 0.0, 0.0, 0.01636584481496417)", 0.0033530643632, 0.0198648863034, -0.153545252148, "(0.001, 0.0, 0.0, 0.0, 0.001, 0.0, 0.0, 0.0, 0.001)", 0.328072189039, 0.689143904681, 0.55102126967, "(0.001, 0.0, 0.0, 0.0, 0.001, 0.0, 0.0, 0.0, 0.001)"
1637149250671199618, 10008, 1636513057, 261264085, base_link, -0.00705655209632, -0.0130194672941, -0.999644110915, -0.0221889624961, "(0.0006989037120991443, 0.0, 0.0, 0.0, 0.0006971629968042237, 0.0, 0.0, 0.0, 0.01636584481496417)", 0.0015627868409, 0.0143397772872, -0.10540451808, "(0.001, 0.0, 0.0, 0.0, 0.001, 0.0, 0.0, 0.0, 0.001)", 0.6101391107, 0.234963915911, -0.240958938758, "(0.001, 0.0, 0.0, 0.0, 0.001, 0.0, 0.0, 0.0, 0.001)"
1637149250689957576, 10009, 1636513057, 280239105, base_link, -0.0069474462502, -0.0130203546492, -0.999629925346, -0.0228520394862, "(0.0006989037120991443, 0.0, 0.0, 0.0, 0.0006971629968042237, 0.0, 0.0, 0.0, 0.01636584481496417)", 0.00207391563079, 0.0229651925378, -0.158408038718, "(0.001, 0.0, 0.0, 0.0, 0.001, 0.0, 0.0, 0.0, 0.001)", -0.172099381133, 0.675043337406, 0.473952870876, "(0.001, 0.0, 0.0, 0.0, 0.001, 0.0, 0.0, 0.0, 0.001)"
1637149250715543504, 10010, 1636513057, 305757999, base_link, -0.00687260025035, -0.0130341557777, -0.999614510885, -0.023530996084, "(0.0006989037120991443, 0.0, 0.0, 0.0, 0.0006971629968042237, 0.0, 0.0, 0.0, 0.01636584481496417)", -0.000288616568572, 0.0121515503175, -0.108111358031, "(0.001, 0.0, 0.0, 0.0, 0.001, 0.0, 0.0, 0.0, 0.001)", 0.344779585753, 0.466622867391, -0.20781719839, "(0.001, 0.0, 0.0, 0.0, 0.001, 0.0, 0.0, 0.0, 0.001)"
1637149250732841761, 10011, 1636513057, 322609901, base_link, -0.0067689106344, -0.0130329026349, -0.999598442217, -0.0242338526486, "(0.0011373091011157715, 0.0, 0.0, 0.0, 0.0011357073582454191, 0.0, 0.0, 0.0, 0.01686492355298075)", -0.000479779701751, 0.0207535171894, -0.165144792342, "(0.001, 0.0, 0.0, 0.0, 0.001, 0.0, 0.0, 0.0, 0.001)", -0.085076373741, 0.682663994524, 0.544463747686, "(0.001, 0.0, 0.0, 0.0, 0.001, 0.0, 0.0, 0.0, 0.001)"
1637149250750533691, 10012, 1636513057, 340792894, base_link, -0.00667589200109, -0.013023282201, -0.999582290977, -0.0249212791092, "(0.0011160335533029336, 0.0, 0.0, 0.0, 0.0011138997400142459, 0.0, 0.0, 0.0, 0.01680691159765857)", -0.00246333849646, 0.0133252909717, -0.111218659756, "(0.001, 0.0, 0.0, 0.0, 0.001, 0.0, 0.0, 0.0, 0.001)", 0.558575886069, 0.541847615763, -0.260647113447, "(0.001, 0.0, 0.0, 0.0, 0.001, 0.0, 0.0, 0.0, 0.001)"
1637149250770237854, 10013, 1636513057, 360485076, base_link, -0.00658298312679, -0.0130196700296, -0.999564922218, -0.0256343284943, "(0.0011160335533029336, 0.0, 0.0, 0.0, 0.0011138997400142459, 0.0, 0.0, 0.0, 0.01680691159765857)", -0.00249309887762, 0.0208933575111, -0.168219530916, "(0.001, 0.0, 0.0, 0.0, 0.001, 0.0, 0.0, 0.0, 0.001)", -0.299013784339, 0.656180998886, 0.0934499423376, "(0.001, 0.0, 0.0, 0.0, 0.001, 0.0, 0.0, 0.0, 0.001)"
1637149250792422905, 10014, 1636513057, 382622957, base_link, -0.00649967063448, -0.0130004322235, -0.999547372409, -0.0263399573781, "(0.0011160335533029336, 0.0, 0.0, 0.0, 0.0011138997400142459, 0.0, 0.0, 0.0, 0.01680691159765857)", -0.0033523769934, 0.0117788844405, -0.113536814348, "(0.001, 0.0, 0.0, 0.0, 0.001, 0.0, 0.0, 0.0, 0.001)", 0.381879136348, 0.548775014576, -0.23370330213, "(0.001, 0.0, 0.0, 0.0, 0.001, 0.0, 0.0, 0.0, 0.001)"
1637149250810455004, 10015, 1636513057, 400700092, base_link, -0.00643182759744, -0.0129678738539, -0.999528951834, -0.027061786465, "(0.0011160335533029336, 0.0, 0.0, 0.0, 0.0011138997400142459, 0.0, 0.0, 0.0, 0.01680691159765857)", -0.00712966968129, 0.016117924715, -0.171474074914, "(0.001, 0.0, 0.0, 0.0, 0.001, 0.0, 0.0, 0.0, 0.001)", -0.0892485958146, 0.7166184133, 0.0652974166726, "(0.001, 0.0, 0.0, 0.0, 0.001, 0.0, 0.0, 0.0, 0.001)"
1637149250831236347, 10016, 1636513057, 420978069, base_link, -0.00636913510557, -0.0129816255177, -0.999510069637, -0.0277584619843, "(0.0011160335533029336, 0.0, 0.0, 0.0, 0.0011138997400142459, 0.0, 0.0, 0.0, 0.01680691159765857)", -0.00133581816152, 0.00870375318795, -0.113089732627, "(0.001, 0.0, 0.0, 0.0, 0.001, 0.0, 0.0, 0.0, 0.001)", 0.455923407637, 0.467367406281, -0.167407556303, "(0.001, 0.0, 0.0, 0.0, 0.001, 0.0, 0.0, 0.0, 0.001)"
1637149250850880772, 10017, 1636513057, 441076993, base_link, -0.00631479117664, -0.012950126728, -0.999490810523, -0.0284699369604, "(0.0011160335533029336, 0.0, 0.0, 0.0, 0.0011138997400142459, 0.0, 0.0, 0.0, 0.01680691159765857)", -0.00570695399726, 0.0124260378728, -0.169856607406, "(0.001, 0.0, 0.0, 0.0, 0.001, 0.0, 0.0, 0.0, 0.001)", -0.0435674840331, 0.692355398951, -0.0649327717457, "(0.001, 0.0, 0.0, 0.0, 0.001, 0.0, 0.0, 0.0, 0.001)"
1637149250871132238, 10018, 1636513057, 461389064, base_link, -0.00627012157612, -0.0129386584162, -0.999471225613, -0.0291641194851, "(0.0011160335533029336, 0.0, 0.0, 0.0, 0.0011138997400142459, 0.0, 0.0, 0.0, 0.01680691159765857)", -0.00319339414121, 0.00603516976628, -0.112098538408, "(0.001, 0.0, 0.0, 0.0, 0.001, 0.0, 0.0, 0.0, 0.001)", 0.115878233336, 0.570555751228, -0.0977883041726, "(0.001, 0.0, 0.0, 0.0, 0.001, 0.0, 0.0, 0.0, 0.001)"
1637149250890191176, 10019, 1636513057, 480393886, base_link, -0.00626164045844, -0.0129177716407, -0.999450428789, -0.0298791470449, "(0.0011160335533029336, 0.0, 0.0, 0.0, 0.0011138997400142459, 0.0, 0.0, 0.0, 0.01680691159765857)", -0.00550949555198, 0.0041382904206, -0.170045790789, "(0.001, 0.0, 0.0, 0.0, 0.001, 0.0, 0.0, 0.0, 0.001)", 0.146800217093, 0.612246497173, -0.344670510198, "(0.001, 0.0, 0.0, 0.0, 0.001, 0.0, 0.0, 0.0, 0.001)"
1637149250911268458, 10020, 1636513057, 501456975, base_link, -0.00625067669575, -0.0129340162036, -0.999428989267, -0.0305832581255, "(0.0011160335533029336, 0.0, 0.0, 0.0, 0.0011138997400142459, 0.0, 0.0, 0.0, 0.01680691159765857)", -8.80096663521e-05, 0.000950315019926, -0.112712831219, "(0.001, 0.0, 0.0, 0.0, 0.001, 0.0, 0.0, 0.0, 0.001)", -0.115300598449, 0.382265910945, -0.0990660246429, "(0.001, 0.0, 0.0, 0.0, 0.001, 0.0, 0.0, 0.0, 0.001)"
1637149250930871077, 10021, 1636513057, 521095037, base_link, -0.00624690669846, -0.0129360601402, -0.999405998189, -0.0313254734732, "(0.0011160335533029336, 0.0, 0.0, 0.0, 0.0011138997400142459, 0.0, 0.0, 0.0, 0.01680691159765857)", -0.000255205001173, -0.000368475685403, -0.174268243974, "(0.001, 0.0, 0.0, 0.0, 0.001, 0.0, 0.0, 0.0, 0.001)", 0.210648005036, 0.700485875853, -0.617320155555, "(0.001, 0.0, 0.0, 0.0, 0.001, 0.0, 0.0, 0.0, 0.001)"
1637149250952132018, 10022, 1636513057, 541914939, base_link, -0.00623166695542, -0.0129600906432, -0.999382567648, -0.0320575398193, "(0.0011160335533029336, 0.0, 0.0, 0.0, 0.0011138997400142459, 0.0, 0.0, 0.0, 0.01680691159765857)", 0.00241983441359, 0.000506876372534, -0.11689917189, "(0.001, 0.0, 0.0, 0.0, 0.001, 0.0, 0.0, 0.0, 0.001)", -0.241590541515, 0.371985461944, 0.0205669603795, "(0.001, 0.0, 0.0, 0.0, 0.001, 0.0, 0.0, 0.0, 0.001)"
1637149250971914465, 10023, 1636513057, 562158107, base_link, -0.00627318399172, -0.0129871854098, -0.999357152658, -0.0328216637262, "(0.0011160335533029336, 0.0, 0.0, 0.0, 0.0011138997400142459, 0.0, 0.0, 0.0, 0.01680691159765857)", 0.0039942169, -0.00647657566264, -0.17993109148, "(0.001, 0.0, 0.0, 0.0, 0.001, 0.0, 0.0, 0.0, 0.001)", 0.255598749075, 0.56519619007, -0.588791516381, "(0.001, 0.0, 0.0, 0.0, 0.001, 0.0, 0.0, 0.0, 0.001)"
1637149250990905702, 10024, 1636513057, 581168889, base_link, -0.00630164636615, -0.0130148391856, -0.999330841786, -0.0335972003078, "(0.0011160335533029336, 0.0, 0.0, 0.0, 0.0011138997400142459, 0.0, 0.0, 0.0, 0.01680691159765857)", 0.00423304299426, -0.00550436564785, -0.122405283178, "(0.001, 0.0, 0.0, 0.0, 0.001, 0.0, 0.0, 0.0, 0.001)", -0.308289942787, 0.42443821211, 0.21121212271, "(0.001, 0.0, 0.0, 0.0, 0.001, 0.0, 0.0, 0.0, 0.001)"
1637149251010086973, 10025, 1636513057, 600328922, base_link, -0.00637285958718, -0.013027813406, -0.999302847459, -0.0344017702995, "(0.0011160335533029336, 0.0, 0.0, 0.0, 0.0011138997400142459, 0.0, 0.0, 0.0, 0.01680691159765857)", 0.00331213390446, -0.014687275049, -0.189250424251, "(0.001, 0.0, 0.0, 0.0, 0.001, 0.0, 0.0, 0.0, 0.001)", 0.199067569934, 0.766292970668, -0.296175488269, "(0.001, 0.0, 0.0, 0.0, 0.001, 0.0, 0.0, 0.0, 0.001)"
1637149251032398730, 10026, 1636513057, 622301101, base_link, -0.00645588257387, -0.0130382922612, -0.999273178502, -0.0352340636475, "(0.0011160335533029336, 0.0, 0.0, 0.0, 0.0011138997400142459, 0.0, 0.0, 0.0, 0.01680691159765857)", 0.00167407568107, -0.0132530129493, -0.13031502734, "(0.001, 0.0, 0.0, 0.0, 0.001, 0.0, 0.0, 0.0, 0.001)", -0.338115447226, 0.30963517657, 0.272183106722, "(0.001, 0.0, 0.0, 0.0, 0.001, 0.0, 0.0, 0.0, 0.001)"
1637149251050555237, 10027, 1636513057, 640824079, base_link, -0.00656109553281, -0.0130530468725, -0.999241286429, -0.0361029290751, "(0.0011160335533029336, 0.0, 0.0, 0.0, 0.0011138997400142459, 0.0, 0.0, 0.0, 0.01680691159765857)", 0.00284536877482, -0.0242989453926, -0.203065460202, "(0.001, 0.0, 0.0, 0.0, 0.001, 0.0, 0.0, 0.0, 0.001)", 0.200558173741, 0.743905061313, -0.165158629585, "(0.001, 0.0, 0.0, 0.0, 0.001, 0.0, 0.0, 0.0, 0.001)"
1637149251071271413, 10028, 1636513057, 661493062, base_link, -0.00667100177203, -0.0130253901606, -0.999207602697, -0.0370135604867, "(0.0011160335533029336, 0.0, 0.0, 0.0, 0.0011138997400142459, 0.0, 0.0, 0.0, 0.01680691159765857)", -0.00184811987489, -0.0185560512917, -0.141641416667, "(0.001, 0.0, 0.0, 0.0, 0.001, 0.0, 0.0, 0.0, 0.001)", -0.347000922453, 0.495168571974, 0.493457328011, "(0.001, 0.0, 0.0, 0.0, 0.001, 0.0, 0.0, 0.0, 0.001)"
1637149251090928382, 10029, 1636513057, 681200981, base_link, -0.0068028583782, -0.0129922905887, -0.999171852692, -0.03795431848, "(0.0011160335533029336, 0.0, 0.0, 0.0, 0.0011138997400142459, 0.0, 0.0, 0.0, 0.01680691159765857)", -0.00652832352025, -0.0325643067138, -0.220226222104, "(0.001, 0.0, 0.0, 0.0, 0.001, 0.0, 0.0, 0.0, 0.001)", 0.0968817250177, 0.715398351221, 0.296038116542, "(0.001, 0.0, 0.0, 0.0, 0.001, 0.0, 0.0, 0.0, 0.001)"
1637149251111139158, 10030, 1636513057, 701373100, base_link, -0.00697493398699, -0.0129229073676, -0.999134093277, -0.0389282983599, "(0.0011160335533029336, 0.0, 0.0, 0.0, 0.0011138997400142459, 0.0, 0.0, 0.0, 0.01680691159765857)", -0.00823812033267, -0.0261484869643, -0.152411423248, "(0.001, 0.0, 0.0, 0.0, 0.001, 0.0, 0.0, 0.0, 0.001)", -0.398649313606, 0.48326624875, 0.551819815581, "(0.001, 0.0, 0.0, 0.0, 0.001, 0.0, 0.0, 0.0, 0.001)"
1637149251131102066, 10031, 1636513057, 721340894, base_link, -0.00713017173334, -0.0128445238881, -0.999094426997, -0.0399312509322, "(0.0011160335533029336, 0.0, 0.0, 0.0, 0.0011138997400142459, 0.0, 0.0, 0.0, 0.01680691159765857)", -0.0170962849767, -0.0420546600509, -0.235555479872, "(0.001, 0.0, 0.0, 0.0, 0.001, 0.0, 0.0, 0.0, 0.001)", 0.20157799934, 0.734976009632, 0.376536213868, "(0.001, 0.0, 0.0, 0.0, 0.001, 0.0, 0.0, 0.0, 0.001)"
1637149251152065697, 10032, 1636513057, 742183923, base_link, -0.00728676350121, -0.0127299639986, -0.999052689266, -0.0409704181596, "(0.0011160335533029336, 0.0, 0.0, 0.0, 0.0011138997400142459, 0.0, 0.0, 0.0, 0.01680691159765857)", -0.0152349832387, -0.0275646793354, -0.162855304841, "(0.001, 0.0, 0.0, 0.0, 0.001, 0.0, 0.0, 0.0, 0.001)", 0.0670186764266, 0.63450093715, 0.204280413086, "(0.001, 0.0, 0.0, 0.0, 0.001, 0.0, 0.0, 0.0, 0.001)"
1637149251170510445, 10033, 1636513057, 760776996, base_link, -0.00741591963809, -0.0126253354954, -0.999009156728, -0.0420274887694, "(0.0011160335533029336, 0.0, 0.0, 0.0, 0.0011138997400142459, 0.0, 0.0, 0.0, 0.01680691159765857)", -0.0249260124528, -0.0390061623024, -0.249469398362, "(0.001, 0.0, 0.0, 0.0, 0.001, 0.0, 0.0, 0.0, 0.001)", 0.617020579914, 0.657783383963, 0.0975322644284, "(0.001, 0.0, 0.0, 0.0, 0.001, 0.0, 0.0, 0.0, 0.001)"
1637149251191149489, 10034, 1636513057, 781322956, base_link, -0.00754200037852, -0.0125212070796, -0.998964083413, -0.0430940559147, "(0.0011160335533029336, 0.0, 0.0, 0.0, 0.0011138997400142459, 0.0, 0.0, 0.0, 0.01680691159765857)", -0.016959625137, -0.0234253089532, -0.169278963853, "(0.001, 0.0, 0.0, 0.0, 0.001, 0.0, 0.0, 0.0, 0.001)", 0.473896895638, 0.233876909921, -0.187752624952, "(0.001, 0.0, 0.0, 0.0, 0.001, 0.0, 0.0, 0.0, 0.001)"
1637149251211739764, 10035, 1636513057, 801920890, base_link, -0.00766550968668, -0.0124830746292, -0.998916681792, -0.0441687179701, "(0.0011160335533029336, 0.0, 0.0, 0.0, 0.0011138997400142459, 0.0, 0.0, 0.0, 0.01680691159765857)", -0.0170254182626, -0.0341463867883, -0.255895354834, "(0.001, 0.0, 0.0, 0.0, 0.001, 0.0, 0.0, 0.0, 0.001)", 0.511696013985, 0.436135613335, -0.110592860477, "(0.001, 0.0, 0.0, 0.0, 0.001, 0.0, 0.0, 0.0, 0.001)"
1637149251230949509, 10036, 1636513057, 820945978, base_link, -0.00778478609861, -0.0123989666162, -0.998868287472, -0.0452527017334, "(0.0011160335533029336, 0.0, 0.0, 0.0, 0.0011138997400142459, 0.0, 0.0, 0.0, 0.01680691159765857)", -0.0120004203315, -0.0226213156953, -0.172656584779, "(0.001, 0.0, 0.0, 0.0, 0.001, 0.0, 0.0, 0.0, 0.001)", 0.848874027726, 0.388445079538, -0.261601532889, "(0.001, 0.0, 0.0, 0.0, 0.001, 0.0, 0.0, 0.0, 0.001)"
1637149251250735577, 10037, 1636513057, 840831995, base_link, -0.00788061432552, -0.0123731828368, -0.998818222286, -0.0463352899318, "(0.0011160335533029336, 0.0, 0.0, 0.0, 0.0011138997400142459, 0.0, 0.0, 0.0, 0.01680691159765857)", -0.0128606855936, -0.0288059483786, -0.258993943877, "(0.001, 0.0, 0.0, 0.0, 0.001, 0.0, 0.0, 0.0, 0.001)", 0.551617868479, 0.176793289001, 0.00443971613224, "(0.001, 0.0, 0.0, 0.0, 0.001, 0.0, 0.0, 0.0, 0.001)"
1637149251271660501, 10038, 1636513057, 861978054, base_link, -0.00797659336994, -0.0123397424353, -0.998766569475, -0.0474283081526, "(0.0011160335533029336, 0.0, 0.0, 0.0, 0.0011138997400142459, 0.0, 0.0, 0.0, 0.01680691159765857)", -0.00613982250364, -0.0189916413542, -0.174322348484, "(0.001, 0.0, 0.0, 0.0, 0.001, 0.0, 0.0, 0.0, 0.001)", 0.951607841145, 0.263362977263, -0.230663394496, "(0.001, 0.0, 0.0, 0.0, 0.001, 0.0, 0.0, 0.0, 0.001)"
1637149251290069019, 10039, 1636513057, 880389928, base_link, -0.00804886763868, -0.0123151044757, -0.99871319577, -0.0485335608225, "(0.0011160335533029336, 0.0, 0.0, 0.0, 0.0011138997400142459, 0.0, 0.0, 0.0, 0.01680691159765857)", -0.00782630824696, -0.0235834779878, -0.263392707363, "(0.001, 0.0, 0.0, 0.0, 0.001, 0.0, 0.0, 0.0, 0.001)", 0.578782465867, 0.0780429009964, 0.522401451883, "(0.001, 0.0, 0.0, 0.0, 0.001, 0.0, 0.0, 0.0, 0.001)"
1637149251311274503, 10040, 1636513057, 901204109, base_link, -0.00812536489221, -0.0123025272732, -0.998658357792, -0.0496398094366, "(0.0011160335533029336, 0.0, 0.0, 0.0, 0.0011138997400142459, 0.0, 0.0, 0.0, 0.01680691159765857)", -0.00435960493427, -0.0154147175658, -0.176886315342, "(0.001, 0.0, 0.0, 0.0, 0.001, 0.0, 0.0, 0.0, 0.001)", 1.1711084758, 0.275215303166, -0.0614345495627, "(0.001, 0.0, 0.0, 0.0, 0.001, 0.0, 0.0, 0.0, 0.001)"
1637149251331688396, 10041, 1636513057, 921940088, base_link, -0.00818531192081, -0.0122297432337, -0.998601306025, -0.0507825329696, "(0.0011160335533029336, 0.0, 0.0, 0.0, 0.0011138997400142459, 0.0, 0.0, 0.0, 0.01680691159765857)", -0.0119969855733, -0.0207816310326, -0.26902979043, "(0.001, 0.0, 0.0, 0.0, 0.001, 0.0, 0.0, 0.0, 0.001)", 0.263604672605, 0.346917841497, 0.927003315743, "(0.001, 0.0, 0.0, 0.0, 0.001, 0.0, 0.0, 0.0, 0.001)"
1637149251350840881, 10042, 1636513057, 941041946, base_link, -0.00819998633736, -0.0121796725757, -0.998542536564, -0.0519347520692, "(0.0011160335533029336, 0.0, 0.0, 0.0, 0.0011138997400142459, 0.0, 0.0, 0.0, 0.01680691159765857)", -0.0098088701407, -0.00819097717036, -0.183499178171, "(0.001, 0.0, 0.0, 0.0, 0.001, 0.0, 0.0, 0.0, 0.001)", 1.1517268056, 0.271609335314, 0.0100855631069, "(0.001, 0.0, 0.0, 0.0, 0.001, 0.0, 0.0, 0.0, 0.001)"
1637149251370329657, 10043, 1636513057, 960613965, base_link, -0.00817251754984, -0.012106806513, -0.998480577236, -0.0531335306075, "(0.0011160335533029336, 0.0, 0.0, 0.0, 0.0011138997400142459, 0.0, 0.0, 0.0, 0.01680691159765857)", -0.0164535667692, -0.00390563707304, -0.281562190379, "(0.001, 0.0, 0.0, 0.0, 0.001, 0.0, 0.0, 0.0, 0.001)", 0.779569839177, 0.528412059134, 0.63331881252, "(0.001, 0.0, 0.0, 0.0, 0.001, 0.0, 0.0, 0.0, 0.001)"
1637149251392245330, 10044, 1636513057, 982347011, base_link, -0.0080939548208, -0.0120278151485, -0.998417936065, -0.0543271985417, "(0.0011160335533029336, 0.0, 0.0, 0.0, 0.0011138997400142459, 0.0, 0.0, 0.0, 0.01680691159765857)", -0.0140745949974, 0.00463363272065, -0.190846557542, "(0.001, 0.0, 0.0, 0.0, 0.001, 0.0, 0.0, 0.0, 0.001)", 0.864102002951, 0.469698169043, 0.114573363512, "(0.001, 0.0, 0.0, 0.0, 0.001, 0.0, 0.0, 0.0, 0.001)"
1637149251410195565, 10045, 1636513058, 379085, base_link, -0.00800611692415, -0.0119188262352, -0.99835068299, -0.0555855866818, "(0.0011160335533029336, 0.0, 0.0, 0.0, 0.0011138997400142459, 0.0, 0.0, 0.0, 0.01680691159765857)", -0.0260375569987, 0.0124453907637, -0.295097643189, "(0.001, 0.0, 0.0, 0.0, 0.001, 0.0, 0.0, 0.0, 0.001)", 0.841063467391, 0.374806960003, 0.0358303214693, "(0.001, 0.0, 0.0, 0.0, 0.001, 0.0, 0.0, 0.0, 0.001)"
1637149251431277128, 10046, 1636513058, 21157979, base_link, -0.00785316215839, -0.0118499804398, -0.998283466903, -0.0568157153974, "(0.0011160335533029336, 0.0, 0.0, 0.0, 0.0011138997400142459, 0.0, 0.0, 0.0, 0.01680691159765857)", -0.0159760322767, 0.0167235140548, -0.197467886084, "(0.001, 0.0, 0.0, 0.0, 0.001, 0.0, 0.0, 0.0, 0.001)", 1.01307290778, 0.125311486047, -0.0903799421331, "(0.001, 0.0, 0.0, 0.0, 0.001, 0.0, 0.0, 0.0, 0.001)"
1637149251452101429, 10047, 1636513058, 42226076, base_link, -0.00765996558709, -0.0117804586123, -0.998213198836, -0.0580771503327, "(0.0011160335533029336, 0.0, 0.0, 0.0, 0.0011138997400142459, 0.0, 0.0, 0.0, 0.01680691159765857)", -0.0210355298775, 0.03520424158, -0.300671889519, "(0.001, 0.0, 0.0, 0.0, 0.001, 0.0, 0.0, 0.0, 0.001)", 1.27597497391, 0.649215856164, -0.341405759497, "(0.001, 0.0, 0.0, 0.0, 0.001, 0.0, 0.0, 0.0, 0.001)"
1637149251471470507, 10048, 1636513058, 61652898, base_link, -0.00744473410823, -0.0117199343578, -0.998142567369, -0.0593180771675, "(0.0011160335533029336, 0.0, 0.0, 0.0, 0.0011138997400142459, 0.0, 0.0, 0.0, 0.01680691159765857)", -0.0137326574558, 0.0284539896175, -0.199369888985, "(0.001, 0.0, 0.0, 0.0, 0.001, 0.0, 0.0, 0.0, 0.001)", 0.465486092816, 0.197943066936, -0.0323883787027, "(0.001, 0.0, 0.0, 0.0, 0.001, 0.0, 0.0, 0.0, 0.001)"
1637149251490453462, 10049, 1636513058, 80775976, base_link, -0.00722444134888, -0.0116671976848, -0.998068785659, -0.0605836862461, "(0.0011160335533029336, 0.0, 0.0, 0.0, 0.0011138997400142459, 0.0, 0.0, 0.0, 0.01680691159765857)", -0.0197727878551, 0.0461443897884, -0.302775382801, "(0.001, 0.0, 0.0, 0.0, 0.001, 0.0, 0.0, 0.0, 0.001)", 1.21881484311, 0.385862000525, -0.461306032418, "(0.001, 0.0, 0.0, 0.0, 0.001, 0.0, 0.0, 0.0, 0.001)"
1637149251510594103, 10050, 1636513058, 100810050, base_link, -0.00699905911713, -0.0116152149735, -0.99799349932, -0.0618471928861, "(0.0011160335533029336, 0.0, 0.0, 0.0, 0.0011138997400142459, 0.0, 0.0, 0.0, 0.01680691159765857)", -0.0112345973932, 0.0330978629298, -0.201906075504, "(0.001, 0.0, 0.0, 0.0, 0.001, 0.0, 0.0, 0.0, 0.001)", 0.0824209021664, 0.0709212019186, 0.153335068691, "(0.001, 0.0, 0.0, 0.0, 0.001, 0.0, 0.0, 0.0, 0.001)"
