time, .header.seq, .header.stamp.secs, .header.stamp.nsecs, .header.frame_id, .orientation.x, .orientation.y, .orientation.z, .orientation.w, .orientation_covariance, .angular_velocity.x, .angular_velocity.y, .angular_velocity.z, .angular_velocity_covariance, .linear_acceleration.x, .linear_acceleration.y, .linear_acceleration.z, .linear_acceleration_covariance
1637149564074620363, 16536, 1636513397, 699467897, base_link, 0.00252064457455, -0.0173085644155, -0.699085146262, 0.714824466722, "(0.0018046297884560941, 0.0, 0.0, 0.0, 0.0018015331413767793, 0.0, 0.0, 0.0, 0.04534038165427767)", 0.00380030929272, -0.00459920281031, -0.00333372531771, "(0.001, 0.0, 0.0, 0.0, 0.001, 0.0, 0.0, 0.0, 0.001)", -0.515870296953, 1.10372231386, 0.0437409641309, "(0.001, 0.0, 0.0, 0.0, 0.001, 0.0, 0.0, 0.0, 0.001)"
1637149564091804943, 16537, 1636513397, 720767974, base_link, 0.00253849011591, -0.017357044349, -0.699086947248, 0.714821466708, "(0.0018046297884560941, 0.0, 0.0, 0.0, 0.0018015331413767793, 0.0, 0.0, 0.0, 0.04534038165427767)", 0.0084819194599, -0.00713690610778, -0.00306377820647, "(0.001, 0.0, 0.0, 0.0, 0.001, 0.0, 0.0, 0.0, 0.001)", 0.375488466515, 1.79359423311, -0.122943025534, "(0.001, 0.0, 0.0, 0.0, 0.001, 0.0, 0.0, 0.0, 0.001)"
1637149564110767198, 16538, 1636513397, 739736080, base_link, 0.00252054089596, -0.0173842629491, -0.699111736244, 0.714796624587, "(0.0018046297884560941, 0.0, 0.0, 0.0, 0.0018015331413767793, 0.0, 0.0, 0.0, 0.04534038165427767)", 0.00310825056367, -0.00446988092661, -0.00408754422317, "(0.001, 0.0, 0.0, 0.0, 0.001, 0.0, 0.0, 0.0, 0.001)", -0.0853513084894, 1.25124857558, -0.124338553661, "(0.001, 0.0, 0.0, 0.0, 0.001, 0.0, 0.0, 0.0, 0.001)"
1637149564131226154, 16539, 1636513397, 760200023, base_link, 0.00256294670172, -0.0174397353041, -0.69910816173, 0.714798618591, "(0.0018046297884560941, 0.0, 0.0, 0.0, 0.0018015331413767793, 0.0, 0.0, 0.0, 0.04534038165427767)", 0.0114726284183, -0.00494898345645, -0.00194347559765, "(0.001, 0.0, 0.0, 0.0, 0.001, 0.0, 0.0, 0.0, 0.001)", 0.114405453153, 1.76075642795, -0.0946093893749, "(0.001, 0.0, 0.0, 0.0, 0.001, 0.0, 0.0, 0.0, 0.001)"
1637149564150482365, 16540, 1636513397, 779304981, base_link, 0.00256656256907, -0.0174986464067, -0.699118641203, 0.714786916258, "(0.0018046297884560941, 0.0, 0.0, 0.0, 0.0018015331413767793, 0.0, 0.0, 0.0, 0.04534038165427767)", 0.0063772239378, -0.00537275308532, -0.00249287677076, "(0.001, 0.0, 0.0, 0.0, 0.001, 0.0, 0.0, 0.0, 0.001)", 0.342059463775, 1.3670151454, -0.367081011161, "(0.001, 0.0, 0.0, 0.0, 0.001, 0.0, 0.0, 0.0, 0.001)"
1637149564172775820, 16541, 1636513397, 800411939, base_link, 0.00259685665998, -0.0175527588937, -0.699114200192, 0.714789823711, "(0.0018046297884560941, 0.0, 0.0, 0.0, 0.0018015331413767793, 0.0, 0.0, 0.0, 0.04534038165427767)", 0.0141445390762, -0.0048897138087, -0.000303588774449, "(0.001, 0.0, 0.0, 0.0, 0.001, 0.0, 0.0, 0.0, 0.001)", -0.138507356389, 1.97524635538, 0.122025567894, "(0.001, 0.0, 0.0, 0.0, 0.001, 0.0, 0.0, 0.0, 0.001)"
1637149564193067628, 16542, 1636513397, 820509910, base_link, 0.00262886686865, -0.0176150102635, -0.69910766193, 0.714794570141, "(0.0018046297884560941, 0.0, 0.0, 0.0, 0.0018015331413767793, 0.0, 0.0, 0.0, 0.04534038165427767)", 0.00881693102851, -0.00450545517976, 0.000373909368929, "(0.001, 0.0, 0.0, 0.0, 0.001, 0.0, 0.0, 0.0, 0.001)", 0.365864640161, 1.38880019906, -0.391928600415, "(0.001, 0.0, 0.0, 0.0, 0.001, 0.0, 0.0, 0.0, 0.001)"
1637149564209733988, 16543, 1636513397, 838928937, base_link, 0.00264774058555, -0.0176737972538, -0.699111973798, 0.714788832071, "(0.0018046297884560941, 0.0, 0.0, 0.0, 0.0018015331413767793, 0.0, 0.0, 0.0, 0.04534038165427767)", 0.0146200905543, -0.00650486937662, -0.000317218357275, "(0.001, 0.0, 0.0, 0.0, 0.001, 0.0, 0.0, 0.0, 0.001)", -0.112752278203, 2.05428848526, 0.289426507669, "(0.001, 0.0, 0.0, 0.0, 0.001, 0.0, 0.0, 0.0, 0.001)"
1637149564230766046, 16544, 1636513397, 859915018, base_link, 0.00266589609703, -0.0177294505323, -0.699105624785, 0.714793596065, "(0.0018046297884560941, 0.0, 0.0, 0.0, 0.0018015331413767793, 0.0, 0.0, 0.0, 0.04534038165427767)", 0.00856572482902, -0.00393019432098, 0.00054300172455, "(0.001, 0.0, 0.0, 0.0, 0.001, 0.0, 0.0, 0.0, 0.001)", 0.0534818505099, 1.22067821176, -0.125055936686, "(0.001, 0.0, 0.0, 0.0, 0.001, 0.0, 0.0, 0.0, 0.001)"
1637149564251142043, 16545, 1636513397, 880376100, base_link, 0.00265838119987, -0.017764129777, -0.699107629438, 0.714790802378, "(0.0018046297884560941, 0.0, 0.0, 0.0, 0.0018015331413767793, 0.0, 0.0, 0.0, 0.04534038165427767)", 0.00799482870549, -0.00769857649166, -6.72378022959e-05, "(0.001, 0.0, 0.0, 0.0, 0.001, 0.0, 0.0, 0.0, 0.001)", 0.0958205316443, 1.95009278414, 0.488486778285, "(0.001, 0.0, 0.0, 0.0, 0.001, 0.0, 0.0, 0.0, 0.001)"
1637149564271287101, 16546, 1636513397, 900312900, base_link, 0.00261316473439, -0.0177929580171, -0.699106648089, 0.714791211902, "(0.0018046297884560941, 0.0, 0.0, 0.0, 0.0018015331413767793, 0.0, 0.0, 0.0, 0.04534038165427767)", 0.00108656816909, -0.00630417623273, 0.000193142270059, "(0.001, 0.0, 0.0, 0.0, 0.001, 0.0, 0.0, 0.0, 0.001)", -0.146729439919, 1.36587479929, 0.266030800287, "(0.001, 0.0, 0.0, 0.0, 0.001, 0.0, 0.0, 0.0, 0.001)"
1637149564289900462, 16547, 1636513397, 919059038, base_link, 0.00256067722336, -0.0177917242277, -0.699107268821, 0.71479082546, "(0.0018046297884560941, 0.0, 0.0, 0.0, 0.0018015331413767793, 0.0, 0.0, 0.0, 0.04534038165427767)", -0.00477687493301, -0.00996485785399, 0.000180027416783, "(0.001, 0.0, 0.0, 0.0, 0.001, 0.0, 0.0, 0.0, 0.001)", -0.0217455730116, 1.7360448024, 0.531615574244, "(0.001, 0.0, 0.0, 0.0, 0.001, 0.0, 0.0, 0.0, 0.001)"
1637149564311412589, 16548, 1636513397, 940515995, base_link, 0.00248030556441, -0.0177828889971, -0.699111366915, 0.714787320532, "(0.0018046297884560941, 0.0, 0.0, 0.0, 0.0018015331413767793, 0.0, 0.0, 0.0, 0.04534038165427767)", -0.00834079165227, -0.0076094428337, -0.000285471590266, "(0.001, 0.0, 0.0, 0.0, 0.001, 0.0, 0.0, 0.0, 0.001)", 0.0816266531772, 1.2376582769, 0.236143521628, "(0.001, 0.0, 0.0, 0.0, 0.001, 0.0, 0.0, 0.0, 0.001)"
1637149564329773474, 16549, 1636513397, 958954095, base_link, 0.00237505414751, -0.0177599079949, -0.699112410168, 0.714787228995, "(0.0018046297884560941, 0.0, 0.0, 0.0, 0.0018015331413767793, 0.0, 0.0, 0.0, 0.04534038165427767)", -0.0176719063878, -0.0119423457091, 0.000299481811422, "(0.001, 0.0, 0.0, 0.0, 0.001, 0.0, 0.0, 0.0, 0.001)", -0.235117387929, 1.65895504952, 0.316590023255, "(0.001, 0.0, 0.0, 0.0, 0.001, 0.0, 0.0, 0.0, 0.001)"
1637149564351368976, 16550, 1636513397, 980514049, base_link, 0.00228185112534, -0.0177386248666, -0.699110074602, 0.714790345439, "(0.0018046297884560941, 0.0, 0.0, 0.0, 0.0018015331413767793, 0.0, 0.0, 0.0, 0.04534038165427767)", -0.0133850104602, -0.00887820741581, -2.70192722192e-05, "(0.001, 0.0, 0.0, 0.0, 0.001, 0.0, 0.0, 0.0, 0.001)", 0.25179490242, 1.01594274655, 0.0478204735302, "(0.001, 0.0, 0.0, 0.0, 0.001, 0.0, 0.0, 0.0, 0.001)"
1637149564370643542, 16551, 1636513397, 999353885, base_link, 0.00215650441743, -0.0177031442037, -0.699109422659, 0.714792251863, "(0.0018046297884560941, 0.0, 0.0, 0.0, 0.0018015331413767793, 0.0, 0.0, 0.0, 0.04534038165427767)", -0.0242047740213, -0.0136554898679, 0.00127984498128, "(0.001, 0.0, 0.0, 0.0, 0.001, 0.0, 0.0, 0.0, 0.001)", -0.0669661504618, 1.57257318373, 0.168118124087, "(0.001, 0.0, 0.0, 0.0, 0.001, 0.0, 0.0, 0.0, 0.001)"
1637149564390253645, 16552, 1636513398, 19398927, base_link, 0.00204954580066, -0.0176803430669, -0.699104997773, 0.714797458669, "(0.0018046297884560941, 0.0, 0.0, 0.0, 0.0018015331413767793, 0.0, 0.0, 0.0, 0.04534038165427767)", -0.0152306870772, -0.00947072466035, 0.00113650883978, "(0.001, 0.0, 0.0, 0.0, 0.001, 0.0, 0.0, 0.0, 0.001)", -0.00661109472103, 1.09657928368, -0.0163848611793, "(0.001, 0.0, 0.0, 0.0, 0.001, 0.0, 0.0, 0.0, 0.001)"
1637149564410458976, 16553, 1636513398, 39607048, base_link, 0.00193565239854, -0.0176557923694, -0.699097584058, 0.714805633868, "(0.0018046297884560941, 0.0, 0.0, 0.0, 0.0018015331413767793, 0.0, 0.0, 0.0, 0.04534038165427767)", -0.0234923906819, -0.0151042746042, 0.00206865545766, "(0.001, 0.0, 0.0, 0.0, 0.001, 0.0, 0.0, 0.0, 0.001)", 0.166622946199, 1.54624236472, 0.00504880682851, "(0.001, 0.0, 0.0, 0.0, 0.001, 0.0, 0.0, 0.0, 0.001)"
1637149564432242077, 16554, 1636513398, 61506032, base_link, 0.00181058192846, -0.0176414958387, -0.699087791996, 0.714815891331, "(0.0018046297884560941, 0.0, 0.0, 0.0, 0.0018015331413767793, 0.0, 0.0, 0.0, 0.04534038165427767)", -0.0156997247974, -0.0109172888755, 0.00268947614288, "(0.001, 0.0, 0.0, 0.0, 0.001, 0.0, 0.0, 0.0, 0.001)", -0.142409227976, 0.960725010462, 0.0506706197208, "(0.001, 0.0, 0.0, 0.0, 0.001, 0.0, 0.0, 0.0, 0.001)"
1637149564449924894, 16555, 1636513398, 79150915, base_link, 0.00172149387871, -0.0176392609169, -0.699065655693, 0.714837815147, "(0.0018046297884560941, 0.0, 0.0, 0.0, 0.0018015331413767793, 0.0, 0.0, 0.0, 0.04534038165427767)", -0.0194807340059, -0.0161979940165, 0.00561160692368, "(0.001, 0.0, 0.0, 0.0, 0.001, 0.0, 0.0, 0.0, 0.001)", 0.263266674839, 1.49293667864, -0.18628700005, "(0.001, 0.0, 0.0, 0.0, 0.001, 0.0, 0.0, 0.0, 0.001)"
1637149564470090944, 16556, 1636513398, 99121093, base_link, 0.00162619035766, -0.0176446570094, -0.699053601713, 0.714849692954, "(0.0018046297884560941, 0.0, 0.0, 0.0, 0.0018015331413767793, 0.0, 0.0, 0.0, 0.04534038165427767)", -0.0109135092941, -0.0110434666884, 0.00369477301251, "(0.001, 0.0, 0.0, 0.0, 0.001, 0.0, 0.0, 0.0, 0.001)", 0.0830919080604, 1.0325557048, -0.113244172819, "(0.001, 0.0, 0.0, 0.0, 0.001, 0.0, 0.0, 0.0, 0.001)"
1637149564491718870, 16557, 1636513398, 120846986, base_link, 0.00155334183015, -0.0176478307936, -0.699028841425, 0.714873988933, "(0.0018046297884560941, 0.0, 0.0, 0.0, 0.0018015331413767793, 0.0, 0.0, 0.0, 0.04534038165427767)", -0.0133819544268, -0.0139940256069, 0.00731933781549, "(0.001, 0.0, 0.0, 0.0, 0.001, 0.0, 0.0, 0.0, 0.001)", -0.0343438203462, 1.53813202674, -0.23816769202, "(0.001, 0.0, 0.0, 0.0, 0.001, 0.0, 0.0, 0.0, 0.001)"
1637149564510148431, 16558, 1636513398, 139357089, base_link, 0.00148271852474, -0.017650497486, -0.699010500305, 0.714892007192, "(0.0018046297884560941, 0.0, 0.0, 0.0, 0.0018015331413767793, 0.0, 0.0, 0.0, 0.04534038165427767)", -0.00907318280166, -0.0090461418736, 0.00426451478842, "(0.001, 0.0, 0.0, 0.0, 0.001, 0.0, 0.0, 0.0, 0.001)", 0.358930828213, 1.07124522732, -0.33644146708, "(0.001, 0.0, 0.0, 0.0, 0.001, 0.0, 0.0, 0.0, 0.001)"
1637149564529959952, 16559, 1636513398, 159276008, base_link, 0.00140334104859, -0.0176701107562, -0.69899568544, 0.714906168358, "(0.0018046297884560941, 0.0, 0.0, 0.0, 0.0018015331413767793, 0.0, 0.0, 0.0, 0.04534038165427767)", -0.0100481997911, -0.014323945536, 0.00628489657463, "(0.001, 0.0, 0.0, 0.0, 0.001, 0.0, 0.0, 0.0, 0.001)", -0.213813647777, 1.62730092026, -0.153995370193, "(0.001, 0.0, 0.0, 0.0, 0.001, 0.0, 0.0, 0.0, 0.001)"
1637149564553844788, 16560, 1636513398, 183034896, base_link, 0.0013295774755, -0.0176937428599, -0.69897301962, 0.714927885545, "(0.0018046297884560941, 0.0, 0.0, 0.0, 0.0018015331413767793, 0.0, 0.0, 0.0, 0.04534038165427767)", -0.00659928501487, -0.0110596756812, 0.00460720791536, "(0.001, 0.0, 0.0, 0.0, 0.001, 0.0, 0.0, 0.0, 0.001)", 0.0430335845266, 1.03350491954, -0.22313014099, "(0.001, 0.0, 0.0, 0.0, 0.001, 0.0, 0.0, 0.0, 0.001)"
1637149564570407540, 16561, 1636513398, 199439048, base_link, 0.00123743755332, -0.017704805721, -0.698963640867, 0.714936946414, "(0.0018046297884560941, 0.0, 0.0, 0.0, 0.0018015331413767793, 0.0, 0.0, 0.0, 0.04534038165427767)", -0.011846768448, -0.0174526943651, 0.00487567335852, "(0.001, 0.0, 0.0, 0.0, 0.001, 0.0, 0.0, 0.0, 0.001)", 0.164415261363, 1.8158299652, -0.156966660504, "(0.001, 0.0, 0.0, 0.0, 0.001, 0.0, 0.0, 0.0, 0.001)"
1637149564590476318, 16562, 1636513398, 219746112, base_link, 0.00115611370611, -0.0177296091886, -0.698950230098, 0.714949578785, "(0.0018046297884560941, 0.0, 0.0, 0.0, 0.0018015331413767793, 0.0, 0.0, 0.0, 0.04534038165427767)", -0.00725199574136, -0.0113272781526, 0.00355727438326, "(0.001, 0.0, 0.0, 0.0, 0.001, 0.0, 0.0, 0.0, 0.001)", -0.285495376631, 1.13964723801, -0.046289948974, "(0.001, 0.0, 0.0, 0.0, 0.001, 0.0, 0.0, 0.0, 0.001)"
1637149564612074566, 16563, 1636513398, 241236925, base_link, 0.00108692330344, -0.0177388570748, -0.698943339612, 0.714956194154, "(0.0018046297884560941, 0.0, 0.0, 0.0, 0.0018015331413767793, 0.0, 0.0, 0.0, 0.04534038165427767)", -0.0111741448151, -0.0161780811325, 0.00328629834966, "(0.001, 0.0, 0.0, 0.0, 0.001, 0.0, 0.0, 0.0, 0.001)", 0.305129611652, 1.65629053933, -0.346721574173, "(0.001, 0.0, 0.0, 0.0, 0.001, 0.0, 0.0, 0.0, 0.001)"
1637149564630547087, 16564, 1636513398, 259623050, base_link, 0.00101253109752, -0.0177316923121, -0.698951313446, 0.714948685781, "(0.0018046297884560941, 0.0, 0.0, 0.0, 0.0018015331413767793, 0.0, 0.0, 0.0, 0.04534038165427767)", -0.00787487691772, -0.00790913604938, 0.000225254913553, "(0.001, 0.0, 0.0, 0.0, 0.001, 0.0, 0.0, 0.0, 0.001)", -0.0882786427973, 1.15653451084, -0.0413698204521, "(0.001, 0.0, 0.0, 0.0, 0.001, 0.0, 0.0, 0.0, 0.001)"
1637149564649941207, 16565, 1636513398, 279200077, base_link, 0.00098458492433, -0.0177358355698, -0.698946020715, 0.714953796309, "(0.0018046297884560941, 0.0, 0.0, 0.0, 0.0018015331413767793, 0.0, 0.0, 0.0, 0.04534038165427767)", -0.00848471637423, -0.00831033235847, 0.00082859067739, "(0.001, 0.0, 0.0, 0.0, 0.001, 0.0, 0.0, 0.0, 0.001)", 0.150682378395, 1.6057320437, -0.34734014488, "(0.001, 0.0, 0.0, 0.0, 0.001, 0.0, 0.0, 0.0, 0.001)"
1637149564675228060, 16566, 1636513398, 303415060, base_link, 0.000939801911632, -0.017736381192, -0.69895147425, 0.714948511571, "(0.0018046297884560941, 0.0, 0.0, 0.0, 0.0018015331413767793, 0.0, 0.0, 0.0, 0.04534038165427767)", -0.00480300917061, -0.00544419670024, -0.000654691385601, "(0.001, 0.0, 0.0, 0.0, 0.001, 0.0, 0.0, 0.0, 0.001)", 0.203051573404, 1.2202191096, -0.176400814054, "(0.001, 0.0, 0.0, 0.0, 0.001, 0.0, 0.0, 0.0, 0.001)"
1637149564692682331, 16567, 1636513398, 321928977, base_link, 0.000900596938036, -0.0177586638001, -0.698957586365, 0.714942033488, "(0.0018786679739868362, 0.0, 0.0, 0.0, 0.0018753590254977498, 0.0, 0.0, 0.0, 0.04548297155818859)", -0.00456622911678, -0.00789527135274, -0.00115753418201, "(0.001, 0.0, 0.0, 0.0, 0.001, 0.0, 0.0, 0.0, 0.001)", -0.266084857058, 1.66512377148, -0.293938009432, "(0.001, 0.0, 0.0, 0.0, 0.001, 0.0, 0.0, 0.0, 0.001)"
1637149564710614176, 16568, 1636513398, 339776992, base_link, 0.000854202845734, -0.0178042102604, -0.698955654375, 0.714942846423, "(0.0015498464542251927, 0.0, 0.0, 0.0, 0.0015471834179001664, 0.0, 0.0, 0.0, 0.04544715696775392)", -0.00178019521414, -0.00950132618208, -0.000412997122067, "(0.001, 0.0, 0.0, 0.0, 0.001, 0.0, 0.0, 0.0, 0.001)", 0.11784364878, 1.13642432626, -0.36454121879, "(0.001, 0.0, 0.0, 0.0, 0.001, 0.0, 0.0, 0.0, 0.001)"
1637149564731378127, 16569, 1636513398, 360464096, base_link, 0.000787091138564, -0.0178674666021, -0.698962574352, 0.71493458007, "(0.0015498464542251927, 0.0, 0.0, 0.0, 0.0015471834179001664, 0.0, 0.0, 0.0, 0.04544715696775392)", -0.00109360761501, -0.0194155255921, -0.000934500960564, "(0.001, 0.0, 0.0, 0.0, 0.001, 0.0, 0.0, 0.0, 0.001)", -0.0766324471785, 1.74699909821, -0.212816966561, "(0.001, 0.0, 0.0, 0.0, 0.001, 0.0, 0.0, 0.0, 0.001)"
1637149564749968788, 16570, 1636513398, 379213094, base_link, 0.000751388140391, -0.0179308660825, -0.698962729175, 0.714932879843, "(0.0015498464542251927, 0.0, 0.0, 0.0, 0.0015471834179001664, 0.0, 0.0, 0.0, 0.04544715696775392)", 0.00181588331503, -0.0114482697553, -0.000397676260103, "(0.001, 0.0, 0.0, 0.0, 0.001, 0.0, 0.0, 0.0, 0.001)", 0.100033027037, 1.06783160963, -0.0786802030936, "(0.001, 0.0, 0.0, 0.0, 0.001, 0.0, 0.0, 0.0, 0.001)"
1637149564770756168, 16571, 1636513398, 399874925, base_link, 0.00071182822913, -0.0179592265086, -0.698974767228, 0.714920439113, "(0.0015498464542251927, 0.0, 0.0, 0.0, 0.0015471834179001664, 0.0, 0.0, 0.0, 0.04544715696775392)", -0.000436860341381, -0.0154133583174, -0.00281771854106, "(0.001, 0.0, 0.0, 0.0, 0.001, 0.0, 0.0, 0.0, 0.001)", 0.429881968282, 1.98071281824, -0.0297518516881, "(0.001, 0.0, 0.0, 0.0, 0.001, 0.0, 0.0, 0.0, 0.001)"
1637149564791562898, 16572, 1636513398, 420897006, base_link, 0.000671929112698, -0.017975364015, -0.698995321387, 0.714899975856, "(0.0015498464542251927, 0.0, 0.0, 0.0, 0.0015471834179001664, 0.0, 0.0, 0.0, 0.04544715696775392)", -0.00130051039198, -0.00673056851731, -0.0028965623344, "(0.001, 0.0, 0.0, 0.0, 0.001, 0.0, 0.0, 0.0, 0.001)", -0.140537072564, 1.14631569025, 0.0954276530875, "(0.001, 0.0, 0.0, 0.0, 0.001, 0.0, 0.0, 0.0, 0.001)"
1637149564809757848, 16573, 1636513398, 438926935, base_link, 0.000679007755238, -0.0179789433851, -0.699015079286, 0.714880560285, "(0.0015498464542251927, 0.0, 0.0, 0.0, 0.0015471834179001664, 0.0, 0.0, 0.0, 0.04544715696775392)", -0.000787617310885, -0.00465681167872, -0.0064407216134, "(0.001, 0.0, 0.0, 0.0, 0.001, 0.0, 0.0, 0.0, 0.001)", 0.322893650701, 1.70766677067, -0.198409803158, "(0.001, 0.0, 0.0, 0.0, 0.001, 0.0, 0.0, 0.0, 0.001)"
1637149564831805176, 16574, 1636513398, 460752964, base_link, 0.000652620994305, -0.0179745308583, -0.699046760681, 0.714849716169, "(0.0015498464542251927, 0.0, 0.0, 0.0, 0.0015471834179001664, 0.0, 0.0, 0.0, 0.04544715696775392)", -0.00215694264989, -0.00247069392849, -0.00584932200984, "(0.001, 0.0, 0.0, 0.0, 0.001, 0.0, 0.0, 0.0, 0.001)", 0.0278138285925, 1.1864219364, -0.0502360124506, "(0.001, 0.0, 0.0, 0.0, 0.001, 0.0, 0.0, 0.0, 0.001)"
1637149564851421392, 16575, 1636513398, 480257987, base_link, 0.000638909130514, -0.0179948726045, -0.699068418312, 0.714828037275, "(0.0015498464542251927, 0.0, 0.0, 0.0, 0.0015471834179001664, 0.0, 0.0, 0.0, 0.04544715696775392)", -0.000677657600985, -0.00354181180807, -0.00766571320111, "(0.001, 0.0, 0.0, 0.0, 0.001, 0.0, 0.0, 0.0, 0.001)", -0.352826359653, 1.63405640545, -0.12765242837, "(0.001, 0.0, 0.0, 0.0, 0.001, 0.0, 0.0, 0.0, 0.001)"
1637149564870538336, 16576, 1636513398, 499361991, base_link, 0.000612771371835, -0.0180252939385, -0.699098049203, 0.714798314834, "(0.0015498464542251927, 0.0, 0.0, 0.0, 0.0015471834179001664, 0.0, 0.0, 0.0, 0.04544715696775392)", -0.00039111140489, -0.00631811882164, -0.00666243779801, "(0.001, 0.0, 0.0, 0.0, 0.001, 0.0, 0.0, 0.0, 0.001)", 0.24687203943, 1.21880409418, -0.00530762110071, "(0.001, 0.0, 0.0, 0.0, 0.001, 0.0, 0.0, 0.0, 0.001)"
1637149564890620628, 16577, 1636513398, 519803047, base_link, 0.000562100946879, -0.0180392094268, -0.699137297838, 0.714759616751, "(0.0015498464542251927, 0.0, 0.0, 0.0, 0.0015471834179001664, 0.0, 0.0, 0.0, 0.04544715696775392)", -0.00317631686944, -0.0093383330953, -0.0109924761002, "(0.001, 0.0, 0.0, 0.0, 0.001, 0.0, 0.0, 0.0, 0.001)", -0.0968090805793, 2.03678337221, 0.307937920722, "(0.001, 0.0, 0.0, 0.0, 0.001, 0.0, 0.0, 0.0, 0.001)"
1637149564912259588, 16578, 1636513398, 541563987, base_link, 0.000534860219948, -0.0180611935902, -0.699175215302, 0.714721991769, "(0.0015498464542251927, 0.0, 0.0, 0.0, 0.0015471834179001664, 0.0, 0.0, 0.0, 0.04544715696775392)", -0.00177342149366, -0.00672982891742, -0.00833734421884, "(0.001, 0.0, 0.0, 0.0, 0.001, 0.0, 0.0, 0.0, 0.001)", 0.162307238914, 1.34660140664, 0.0203531282583, "(0.001, 0.0, 0.0, 0.0, 0.001, 0.0, 0.0, 0.0, 0.001)"
1637149564930105613, 16579, 1636513398, 559308052, base_link, 0.000495500778595, -0.0180733646766, -0.699227337376, 0.714670720426, "(0.0015498464542251927, 0.0, 0.0, 0.0, 0.0015471834179001664, 0.0, 0.0, 0.0, 0.04544715696775392)", -0.00431508597648, -0.00962793923885, -0.015458555673, "(0.001, 0.0, 0.0, 0.0, 0.001, 0.0, 0.0, 0.0, 0.001)", 0.18143915019, 1.7807494052, 0.0671476609603, "(0.001, 0.0, 0.0, 0.0, 0.001, 0.0, 0.0, 0.0, 0.001)"
1637149564950587187, 16580, 1636513398, 579814910, base_link, 0.000453495198541, -0.0180725398676, -0.699274549779, 0.714624573938, "(0.0015498464542251927, 0.0, 0.0, 0.0, 0.0015471834179001664, 0.0, 0.0, 0.0, 0.04544715696775392)", -0.00362429087929, -0.00463085443185, -0.00986320375212, "(0.001, 0.0, 0.0, 0.0, 0.001, 0.0, 0.0, 0.0, 0.001)", -0.123188167355, 1.24320276311, 0.0366821694204, "(0.001, 0.0, 0.0, 0.0, 0.001, 0.0, 0.0, 0.0, 0.001)"
1637149564970026179, 16581, 1636513398, 599298954, base_link, 0.000425996442385, -0.0180856665252, -0.699329001913, 0.714570972176, "(0.0015498464542251927, 0.0, 0.0, 0.0, 0.0015471834179001664, 0.0, 0.0, 0.0, 0.04544715696775392)", -0.00420601022838, -0.00791702961521, -0.0174970581799, "(0.001, 0.0, 0.0, 0.0, 0.001, 0.0, 0.0, 0.0, 0.001)", 0.107533004489, 1.81284087969, 0.051325912544, "(0.001, 0.0, 0.0, 0.0, 0.001, 0.0, 0.0, 0.0, 0.001)"
1637149564990236676, 16582, 1636513398, 619513034, base_link, 0.000385675337115, -0.0181043689655, -0.699389981269, 0.714510837692, "(0.0015498464542251927, 0.0, 0.0, 0.0, 0.0015471834179001664, 0.0, 0.0, 0.0, 0.04544715696775392)", -0.00312411589109, -0.00607390882258, -0.0126081149522, "(0.001, 0.0, 0.0, 0.0, 0.001, 0.0, 0.0, 0.0, 0.001)", -0.0216399051118, 1.23677445635, 0.114014145394, "(0.001, 0.0, 0.0, 0.0, 0.001, 0.0, 0.0, 0.0, 0.001)"
1637149565010260588, 16583, 1636513398, 639358043, base_link, 0.000364585456579, -0.0180823937415, -0.699447601607, 0.714454999787, "(0.0015498464542251927, 0.0, 0.0, 0.0, 0.0015471834179001664, 0.0, 0.0, 0.0, 0.04544715696775392)", -0.00560742257604, -0.00416228454964, -0.0192250184416, "(0.001, 0.0, 0.0, 0.0, 0.001, 0.0, 0.0, 0.0, 0.001)", 0.41105244879, 1.5832985318, 0.0706571545717, "(0.001, 0.0, 0.0, 0.0, 0.001, 0.0, 0.0, 0.0, 0.001)"
1637149565032329983, 16584, 1636513398, 661443948, base_link, 0.000393323411648, -0.0180398202565, -0.699493287985, 0.714411331269, "(0.0015498464542251927, 0.0, 0.0, 0.0, 0.0015471834179001664, 0.0, 0.0, 0.0, 0.04544715696775392)", -0.00297068018553, 0.00357612304638, -0.0115932647285, "(0.001, 0.0, 0.0, 0.0, 0.001, 0.0, 0.0, 0.0, 0.001)", 0.832553914888, 0.796799661646, -0.0089954515376, "(0.001, 0.0, 0.0, 0.0, 0.001, 0.0, 0.0, 0.0, 0.001)"
1637149565049979003, 16585, 1636513398, 679229974, base_link, 0.000443827560024, -0.0179848802627, -0.699525274495, 0.714381366947, "(0.0015498464542251927, 0.0, 0.0, 0.0, 0.0015471834179001664, 0.0, 0.0, 0.0, 0.04544715696775392)", -0.0020401911678, 0.0140483933728, -0.0126208072833, "(0.001, 0.0, 0.0, 0.0, 0.001, 0.0, 0.0, 0.0, 0.001)", 0.436596593057, 1.57153741991, 0.183230035333, "(0.001, 0.0, 0.0, 0.0, 0.001, 0.0, 0.0, 0.0, 0.001)"
1637149565071016678, 16586, 1636513398, 699970960, base_link, 0.000493579732972, -0.017907865755, -0.699545759688, 0.714363209317, "(0.0015498464542251927, 0.0, 0.0, 0.0, 0.0015471834179001664, 0.0, 0.0, 0.0, 0.04544715696775392)", -0.00186310422745, 0.0119896306146, -0.00642141037968, "(0.001, 0.0, 0.0, 0.0, 0.001, 0.0, 0.0, 0.0, 0.001)", 0.444862460174, 0.935270271041, 0.124914480724, "(0.001, 0.0, 0.0, 0.0, 0.001, 0.0, 0.0, 0.0, 0.001)"
1637149565091147853, 16587, 1636513398, 720367908, base_link, 0.000532231593624, -0.0178640051471, -0.699552660024, 0.714357522465, "(0.0015498464542251927, 0.0, 0.0, 0.0, 0.0015471834179001664, 0.0, 0.0, 0.0, 0.04544715696775392)", -0.00298647921399, 0.0162074450897, -0.0052450517117, "(0.001, 0.0, 0.0, 0.0, 0.001, 0.0, 0.0, 0.0, 0.001)", 0.3544701722, 1.2797124881, 0.00954997896556, "(0.001, 0.0, 0.0, 0.0, 0.001, 0.0, 0.0, 0.0, 0.001)"
1637149565110224781, 16588, 1636513398, 739449977, base_link, 0.000569656448364, -0.0178175193019, -0.699558199035, 0.714353230314, "(0.0015498464542251927, 0.0, 0.0, 0.0, 0.0015471834179001664, 0.0, 0.0, 0.0, 0.04544715696775392)", -0.000372214942191, 0.0107727908208, -0.00137165689248, "(0.001, 0.0, 0.0, 0.0, 0.001, 0.0, 0.0, 0.0, 0.001)", -0.170900622851, 0.93343780359, 0.136653085228, "(0.001, 0.0, 0.0, 0.0, 0.001, 0.0, 0.0, 0.0, 0.001)"
1637149565130939501, 16589, 1636513398, 759826898, base_link, 0.000616789572305, -0.0177921484704, -0.699563352694, 0.714348776572, "(0.0015498464542251927, 0.0, 0.0, 0.0, 0.0015471834179001664, 0.0, 0.0, 0.0, 0.04544715696775392)", 0.000566237139204, 0.0124257885388, -0.00251722319707, "(0.001, 0.0, 0.0, 0.0, 0.001, 0.0, 0.0, 0.0, 0.001)", 0.206910543216, 1.43985948674, -0.175175410838, "(0.001, 0.0, 0.0, 0.0, 0.001, 0.0, 0.0, 0.0, 0.001)"
1637149565151855173, 16590, 1636513398, 780971050, base_link, 0.000618085051331, -0.0177691822367, -0.699589290479, 0.714323945266, "(0.0015498464542251927, 0.0, 0.0, 0.0, 0.0015471834179001664, 0.0, 0.0, 0.0, 0.04544715696775392)", -0.000552212588465, 0.00529693876769, -0.00364762626357, "(0.001, 0.0, 0.0, 0.0, 0.001, 0.0, 0.0, 0.0, 0.001)", -0.406957184533, 1.20821905031, -0.023467292913, "(0.001, 0.0, 0.0, 0.0, 0.001, 0.0, 0.0, 0.0, 0.001)"
1637149565171237085, 16591, 1636513398, 800481081, base_link, 0.000619351340256, -0.0177510247084, -0.699611802662, 0.714302347121, "(0.0015498464542251927, 0.0, 0.0, 0.0, 0.0015471834179001664, 0.0, 0.0, 0.0, 0.04544715696775392)", -0.00241722399243, 0.00533228329027, -0.00645098899187, "(0.001, 0.0, 0.0, 0.0, 0.001, 0.0, 0.0, 0.0, 0.001)", -0.144200798237, 1.56474507601, -0.145994838038, "(0.001, 0.0, 0.0, 0.0, 0.001, 0.0, 0.0, 0.0, 0.001)"
1637149565190844181, 16592, 1636513398, 820072889, base_link, 0.000620545853029, -0.0177421521004, -0.699657361131, 0.714257942187, "(0.0015498464542251927, 0.0, 0.0, 0.0, 0.0015471834179001664, 0.0, 0.0, 0.0, 0.04544715696775392)", -0.00144552629563, 0.00114577081288, -0.00852090358062, "(0.001, 0.0, 0.0, 0.0, 0.001, 0.0, 0.0, 0.0, 0.001)", -0.179079596332, 1.10444143217, -0.178226611011, "(0.001, 0.0, 0.0, 0.0, 0.001, 0.0, 0.0, 0.0, 0.001)"
1637149565210305254, 16593, 1636513398, 839529037, base_link, 0.000620545853029, -0.0177421521004, -0.699657361131, 0.714257942187, "(0.0015498464542251927, 0.0, 0.0, 0.0, 0.0015471834179001664, 0.0, 0.0, 0.0, 0.04544715696775392)", -0.002243681263, 0.000677311520524, -0.0193824159124, "(0.001, 0.0, 0.0, 0.0, 0.001, 0.0, 0.0, 0.0, 0.001)", -0.488988541125, 1.52386627832, -0.165192277881, "(0.001, 0.0, 0.0, 0.0, 0.001, 0.0, 0.0, 0.0, 0.001)"
1637149565231726004, 16594, 1636513398, 860325098, base_link, 0.000609110347933, -0.0177345916049, -0.699733663392, 0.714183389306, "(0.0015498464542251927, 0.0, 0.0, 0.0, 0.0015471834179001664, 0.0, 0.0, 0.0, 0.04544715696775392)", -0.00210367904718, 0.00192253042611, -0.0151882263625, "(0.001, 0.0, 0.0, 0.0, 0.001, 0.0, 0.0, 0.0, 0.001)", 0.233301751565, 0.772588734868, -0.1791373799, "(0.001, 0.0, 0.0, 0.0, 0.001, 0.0, 0.0, 0.0, 0.001)"
1637149565250861182, 16595, 1636513398, 880079030, base_link, 0.000642227182345, -0.0176798636755, -0.699900084721, 0.714021625284, "(0.0015498464542251927, 0.0, 0.0, 0.0, 0.0015471834179001664, 0.0, 0.0, 0.0, 0.04544715696775392)", -0.00257968447119, 0.00541399976989, -0.0281177272712, "(0.001, 0.0, 0.0, 0.0, 0.001, 0.0, 0.0, 0.0, 0.001)", 0.418250478381, 1.11555123926, -0.0997679935195, "(0.001, 0.0, 0.0, 0.0, 0.001, 0.0, 0.0, 0.0, 0.001)"
1637149565270388168, 16596, 1636513398, 899547100, base_link, 0.000696801933729, -0.0176144615522, -0.700002967921, 0.713922327787, "(0.0015498464542251927, 0.0, 0.0, 0.0, 0.0015471834179001664, 0.0, 0.0, 0.0, 0.04544715696775392)", -0.00114853794111, 0.0108302951549, -0.021650830375, "(0.001, 0.0, 0.0, 0.0, 0.001, 0.0, 0.0, 0.0, 0.001)", 0.248076702577, 0.657055009901, 0.0412758060562, "(0.001, 0.0, 0.0, 0.0, 0.001, 0.0, 0.0, 0.0, 0.001)"
1637149565289829261, 16597, 1636513398, 919040918, base_link, 0.000788376308134, -0.0175270253706, -0.700133386082, 0.713796486078, "(0.0015498464542251927, 0.0, 0.0, 0.0, 0.0015471834179001664, 0.0, 0.0, 0.0, 0.04544715696775392)", -0.000183540291661, 0.0226202929969, -0.0393298346563, "(0.001, 0.0, 0.0, 0.0, 0.001, 0.0, 0.0, 0.0, 0.001)", 0.84132507061, 1.25212185844, 0.161163800364, "(0.001, 0.0, 0.0, 0.0, 0.001, 0.0, 0.0, 0.0, 0.001)"
1637149565312669258, 16598, 1636513398, 941828966, base_link, 0.000875257396219, -0.0174265019983, -0.700273465783, 0.713661421174, "(0.0015498464542251927, 0.0, 0.0, 0.0, 0.0015471834179001664, 0.0, 0.0, 0.0, 0.04544715696775392)", -0.00154875127533, 0.0203029557438, -0.0294810314706, "(0.001, 0.0, 0.0, 0.0, 0.001, 0.0, 0.0, 0.0, 0.001)", 0.11542017916, 0.698838290163, 0.0215595073598, "(0.001, 0.0, 0.0, 0.0, 0.001, 0.0, 0.0, 0.0, 0.001)"
1637149565329950532, 16599, 1636513398, 959184885, base_link, 0.000986815882471, -0.0173435668206, -0.700422727724, 0.713516803847, "(0.0015498464542251927, 0.0, 0.0, 0.0, 0.0015471834179001664, 0.0, 0.0, 0.0, 0.04544715696775392)", 0.00171259147941, 0.0309573831641, -0.0474973012614, "(0.001, 0.0, 0.0, 0.0, 0.001, 0.0, 0.0, 0.0, 0.001)", 0.395523016369, 1.13017655497, -0.0822512989637, "(0.001, 0.0, 0.0, 0.0, 0.001, 0.0, 0.0, 0.0, 0.001)"
1637149565350599362, 16600, 1636513398, 979723930, base_link, 0.00107249007627, -0.0172608377014, -0.700591919877, 0.713352560135, "(0.0015498464542251927, 0.0, 0.0, 0.0, 0.0015471834179001664, 0.0, 0.0, 0.0, 0.04544715696775392)", 0.000198218961821, 0.0195642187806, -0.0362448368412, "(0.001, 0.0, 0.0, 0.0, 0.001, 0.0, 0.0, 0.0, 0.001)", 0.219008297376, 0.844668444869, -0.0465073379694, "(0.001, 0.0, 0.0, 0.0, 0.001, 0.0, 0.0, 0.0, 0.001)"
1637149565370905626, 16601, 1636513398, 999413013, base_link, 0.00117318164071, -0.0171956182036, -0.700752936842, 0.713195804717, "(0.0015498464542251927, 0.0, 0.0, 0.0, 0.0015471834179001664, 0.0, 0.0, 0.0, 0.04544715696775392)", 0.0044308581472, 0.0291984047598, -0.0541275521319, "(0.001, 0.0, 0.0, 0.0, 0.001, 0.0, 0.0, 0.0, 0.001)", 0.168900387989, 1.38947840672, 0.154603507858, "(0.001, 0.0, 0.0, 0.0, 0.001, 0.0, 0.0, 0.0, 0.001)"
1637149565390356425, 16602, 1636513399, 19614934, base_link, 0.00128633709371, -0.0170926876897, -0.700922710757, 0.713031232773, "(0.0015498464542251927, 0.0, 0.0, 0.0, 0.0015471834179001664, 0.0, 0.0, 0.0, 0.04544715696775392)", 0.00103414545039, 0.0206613927075, -0.0378628735077, "(0.001, 0.0, 0.0, 0.0, 0.001, 0.0, 0.0, 0.0, 0.001)", 0.714511602124, 0.99497478922, -0.0414417413672, "(0.001, 0.0, 0.0, 0.0, 0.001, 0.0, 0.0, 0.0, 0.001)"
1637149565409918578, 16603, 1636513399, 39027929, base_link, 0.00142658774579, -0.0169815479489, -0.701098500222, 0.712860775232, "(0.0015498464542251927, 0.0, 0.0, 0.0, 0.0015471834179001664, 0.0, 0.0, 0.0, 0.04544715696775392)", 0.00297700517972, 0.0376344113881, -0.0577349536086, "(0.001, 0.0, 0.0, 0.0, 0.001, 0.0, 0.0, 0.0, 0.001)", 0.591620259326, 1.08259072661, -0.323102956379, "(0.001, 0.0, 0.0, 0.0, 0.001, 0.0, 0.0, 0.0, 0.001)"
1637149565431187325, 16604, 1636513399, 60210943, base_link, 0.00163365589847, -0.0168748623008, -0.701267769606, 0.712696348737, "(0.0015498464542251927, 0.0, 0.0, 0.0, 0.0015471834179001664, 0.0, 0.0, 0.0, 0.04544715696775392)", 0.00804650652051, 0.0317449457178, -0.0386680159233, "(0.001, 0.0, 0.0, 0.0, 0.001, 0.0, 0.0, 0.0, 0.001)", 0.56171259049, 0.653987150033, -0.336483117517, "(0.001, 0.0, 0.0, 0.0, 0.001, 0.0, 0.0, 0.0, 0.001)"
1637149565449970790, 16605, 1636513399, 79207897, base_link, 0.00185596830294, -0.0167479906012, -0.701444466371, 0.712524891347, "(0.0015498464542251927, 0.0, 0.0, 0.0, 0.0015471834179001664, 0.0, 0.0, 0.0, 0.04544715696775392)", 0.0138839191857, 0.0536731155036, -0.0594148041222, "(0.001, 0.0, 0.0, 0.0, 0.001, 0.0, 0.0, 0.0, 0.001)", 0.570309578838, 1.25459612125, -0.385539764429, "(0.001, 0.0, 0.0, 0.0, 0.001, 0.0, 0.0, 0.0, 0.001)"
1637149565473858872, 16606, 1636513399, 102063894, base_link, 0.00185596830294, -0.0167479906012, -0.701444466371, 0.712524891347, "(0.0015498464542251927, 0.0, 0.0, 0.0, 0.0015471834179001664, 0.0, 0.0, 0.0, 0.04544715696775392)", 0.011520086817, 0.0349844518105, -0.0388078461179, "(0.001, 0.0, 0.0, 0.0, 0.001, 0.0, 0.0, 0.0, 0.001)", -0.442991693446, 0.822614676009, -0.0891427017168, "(0.001, 0.0, 0.0, 0.0, 0.001, 0.0, 0.0, 0.0, 0.001)"
1637149565490713129, 16607, 1636513399, 119812011, base_link, 0.00225986511675, -0.016589423467, -0.701793162657, 0.712183993703, "(0.0015498464542251927, 0.0, 0.0, 0.0, 0.0015471834179001664, 0.0, 0.0, 0.0, 0.04544715696775392)", 0.0204378477035, 0.0470089565244, -0.0600752133683, "(0.001, 0.0, 0.0, 0.0, 0.001, 0.0, 0.0, 0.0, 0.001)", 0.125068637532, 1.2276293423, -0.32871801526, "(0.001, 0.0, 0.0, 0.0, 0.001, 0.0, 0.0, 0.0, 0.001)"
1637149565510808928, 16608, 1636513399, 139848947, base_link, 0.00243717392714, -0.0165421015429, -0.701971295699, 0.712008931878, "(0.0015498464542251927, 0.0, 0.0, 0.0, 0.0015471834179001664, 0.0, 0.0, 0.0, 0.04544715696775392)", 0.0147505450693, 0.0270959911222, -0.0398021583395, "(0.001, 0.0, 0.0, 0.0, 0.001, 0.0, 0.0, 0.0, 0.001)", -0.341714420323, 0.911978059092, 0.015532277384, "(0.001, 0.0, 0.0, 0.0, 0.001, 0.0, 0.0, 0.0, 0.001)"
1637149565530774632, 16609, 1636513399, 159084081, base_link, 0.0025834876623, -0.0165020813595, -0.702121434725, 0.711861291125, "(0.0015498464542251927, 0.0, 0.0, 0.0, 0.0015471834179001664, 0.0, 0.0, 0.0, 0.04544715696775392)", 0.0198562803003, 0.0362809607051, -0.0551024190291, "(0.001, 0.0, 0.0, 0.0, 0.001, 0.0, 0.0, 0.0, 0.001)", -0.280651294038, 1.39067514479, 0.0808961165469, "(0.001, 0.0, 0.0, 0.0, 0.001, 0.0, 0.0, 0.0, 0.001)"
1637149565550898007, 16610, 1636513399, 180160999, base_link, 0.00270203363671, -0.0164474271644, -0.702287237397, 0.711698543868, "(0.0015498464542251927, 0.0, 0.0, 0.0, 0.0015471834179001664, 0.0, 0.0, 0.0, 0.04544715696775392)", 0.00925968076999, 0.0194710477903, -0.0371728825925, "(0.001, 0.0, 0.0, 0.0, 0.001, 0.0, 0.0, 0.0, 0.001)", -0.00590082429055, 1.05987259251, 0.0727272559055, "(0.001, 0.0, 0.0, 0.0, 0.001, 0.0, 0.0, 0.0, 0.001)"
1637149565571219347, 16611, 1636513399, 199229001, base_link, 0.00278131505395, -0.0164285549171, -0.702444580234, 0.711543377856, "(0.0015498464542251927, 0.0, 0.0, 0.0, 0.0015471834179001664, 0.0, 0.0, 0.0, 0.04544715696775392)", 0.0110016685715, 0.0221924085467, -0.0534824016559, "(0.001, 0.0, 0.0, 0.0, 0.001, 0.0, 0.0, 0.0, 0.001)", -0.843012851063, 1.52225296812, 0.128192267295, "(0.001, 0.0, 0.0, 0.0, 0.001, 0.0, 0.0, 0.0, 0.001)"
1637149565590689632, 16612, 1636513399, 219993114, base_link, 0.00285014949344, -0.0164070775613, -0.702597768652, 0.711392338966, "(0.0015498464542251927, 0.0, 0.0, 0.0, 0.0015471834179001664, 0.0, 0.0, 0.0, 0.04544715696775392)", 0.00597645285368, 0.0108606137522, -0.0357813135833, "(0.001, 0.0, 0.0, 0.0, 0.001, 0.0, 0.0, 0.0, 0.001)", -0.0471003428548, 0.89027060218, -0.0867042323416, "(0.001, 0.0, 0.0, 0.0, 0.001, 0.0, 0.0, 0.0, 0.001)"
1637149565611184741, 16613, 1636513399, 240437030, base_link, 0.00288462437984, -0.0164010688428, -0.702777087142, 0.711215192239, "(0.0015498464542251927, 0.0, 0.0, 0.0, 0.0015471834179001664, 0.0, 0.0, 0.0, 0.04544715696775392)", 0.00670399606142, 0.0103734508146, -0.05626905119, "(0.001, 0.0, 0.0, 0.0, 0.001, 0.0, 0.0, 0.0, 0.001)", -0.822714955827, 1.61976562009, 0.138091145684, "(0.001, 0.0, 0.0, 0.0, 0.001, 0.0, 0.0, 0.0, 0.001)"
1637149565630043955, 16614, 1636513399, 259289026, base_link, 0.00291798733298, -0.0163822763102, -0.702947330771, 0.711047225249, "(0.0015498464542251927, 0.0, 0.0, 0.0, 0.0015471834179001664, 0.0, 0.0, 0.0, 0.04544715696775392)", 0.00169788256214, 0.00610930286419, -0.0386461776197, "(0.001, 0.0, 0.0, 0.0, 0.001, 0.0, 0.0, 0.0, 0.001)", -0.478461334052, 0.884177812452, -0.00643638115846, "(0.001, 0.0, 0.0, 0.0, 0.001, 0.0, 0.0, 0.0, 0.001)"
1637149565650122183, 16615, 1636513399, 279376029, base_link, 0.00291669770481, -0.0163931395188, -0.703141996773, 0.710854478937, "(0.0015498464542251927, 0.0, 0.0, 0.0, 0.0015471834179001664, 0.0, 0.0, 0.0, 0.04544715696775392)", 0.00124801633971, 0.00167477725337, -0.0628099465944, "(0.001, 0.0, 0.0, 0.0, 0.001, 0.0, 0.0, 0.0, 0.001)", -0.297999553616, 1.32106431679, -0.0564509500748, "(0.001, 0.0, 0.0, 0.0, 0.001, 0.0, 0.0, 0.0, 0.001)"
1637149565676650606, 16616, 1636513399, 304989099, base_link, 0.00289743405357, -0.0164001607558, -0.703335001749, 0.71066343294, "(0.0015498464542251927, 0.0, 0.0, 0.0, 0.0015471834179001664, 0.0, 0.0, 0.0, 0.04544715696775392)", -0.000188314210709, -0.00149424275596, -0.0421461468617, "(0.001, 0.0, 0.0, 0.0, 0.001, 0.0, 0.0, 0.0, 0.001)", -0.774043719118, 1.04047648709, 0.172031554937, "(0.001, 0.0, 0.0, 0.0, 0.001, 0.0, 0.0, 0.0, 0.001)"
1637149565692297246, 16617, 1636513399, 321398019, base_link, 0.00283049240696, -0.0164429792304, -0.703533944329, 0.710465766891, "(0.0019348776670549128, 0.0, 0.0, 0.0, 0.0019319177547633265, 0.0, 0.0, 0.0, 0.04598370966415488)", -0.00378159300328, -0.0125842948166, -0.0663662767373, "(0.001, 0.0, 0.0, 0.0, 0.001, 0.0, 0.0, 0.0, 0.001)", -0.310045251131, 1.36024975899, 0.00865535911196, "(0.001, 0.0, 0.0, 0.0, 0.001, 0.0, 0.0, 0.0, 0.001)"
1637149565710865048, 16618, 1636513399, 339904069, base_link, 0.00273775470254, -0.016481616983, -0.703747642318, 0.710253558198, "(0.0016662145198163142, 0.0, 0.0, 0.0, 0.0016619603672316519, 0.0, 0.0, 0.0, 0.045791453478173594)", -0.00496548206023, -0.0133223819749, -0.0461072675237, "(0.001, 0.0, 0.0, 0.0, 0.001, 0.0, 0.0, 0.0, 0.001)", -0.352395593373, 0.872143824142, 0.221249498159, "(0.001, 0.0, 0.0, 0.0, 0.001, 0.0, 0.0, 0.0, 0.001)"
1637149565731463142, 16619, 1636513399, 360691070, base_link, 0.00264459672057, -0.0165249256162, -0.70394936662, 0.710052971388, "(0.0016662145198163142, 0.0, 0.0, 0.0, 0.0016619603672316519, 0.0, 0.0, 0.0, 0.045791453478173594)", -0.00844034512712, -0.0224296192317, -0.0688185793168, "(0.001, 0.0, 0.0, 0.0, 0.001, 0.0, 0.0, 0.0, 0.001)", 0.00406780094444, 1.23736666337, 0.0637090503088, "(0.001, 0.0, 0.0, 0.0, 0.001, 0.0, 0.0, 0.0, 0.001)"
1637149565751143250, 16620, 1636513399, 380260944, base_link, 0.00253411203175, -0.0165640046425, -0.704168912344, 0.709834737749, "(0.0016662145198163142, 0.0, 0.0, 0.0, 0.0016619603672316519, 0.0, 0.0, 0.0, 0.045791453478173594)", -0.00797244055046, -0.0173667430011, -0.0483587918068, "(0.001, 0.0, 0.0, 0.0, 0.001, 0.0, 0.0, 0.0, 0.001)", 0.229273766985, 0.859481522599, -0.00563840803229, "(0.001, 0.0, 0.0, 0.0, 0.001, 0.0, 0.0, 0.0, 0.001)"
1637149565770452473, 16621, 1636513399, 399750947, base_link, 0.00242542715289, -0.0166155845396, -0.704387121404, 0.709617377785, "(0.0016662145198163142, 0.0, 0.0, 0.0, 0.0016619603672316519, 0.0, 0.0, 0.0, 0.045791453478173594)", -0.0106858364448, -0.026418705971, -0.0722970598706, "(0.001, 0.0, 0.0, 0.0, 0.001, 0.0, 0.0, 0.0, 0.001)", -0.235439930334, 1.15787760625, 0.0695584595525, "(0.001, 0.0, 0.0, 0.0, 0.001, 0.0, 0.0, 0.0, 0.001)"
1637149565791559442, 16622, 1636513399, 420789957, base_link, 0.00233526180909, -0.0166646026252, -0.704602113197, 0.70940305867, "(0.0016662145198163142, 0.0, 0.0, 0.0, 0.0016619603672316519, 0.0, 0.0, 0.0, 0.045791453478173594)", -0.00665636465206, -0.0176330986644, -0.049523160952, "(0.001, 0.0, 0.0, 0.0, 0.001, 0.0, 0.0, 0.0, 0.001)", 0.571211436681, 0.811534376965, -0.261207942127, "(0.001, 0.0, 0.0, 0.0, 0.001, 0.0, 0.0, 0.0, 0.001)"
1637149565809897776, 16623, 1636513399, 439208030, base_link, 0.00224066504509, -0.0166961688166, -0.704837331887, 0.709168917075, "(0.0016662145198163142, 0.0, 0.0, 0.0, 0.0016619603672316519, 0.0, 0.0, 0.0, 0.045791453478173594)", -0.00999483698695, -0.0244005634857, -0.0758780486305, "(0.001, 0.0, 0.0, 0.0, 0.001, 0.0, 0.0, 0.0, 0.001)", 0.172820340174, 1.19843309721, -0.0214071441603, "(0.001, 0.0, 0.0, 0.0, 0.001, 0.0, 0.0, 0.0, 0.001)"
1637149565831397381, 16624, 1636513399, 460427999, base_link, 0.00219353152536, -0.016724563619, -0.705057272949, 0.708949729708, "(0.0016662145198163142, 0.0, 0.0, 0.0, 0.0016619603672316519, 0.0, 0.0, 0.0, 0.045791453478173594)", -0.00468379746632, -0.011808867009, -0.0507837768026, "(0.001, 0.0, 0.0, 0.0, 0.001, 0.0, 0.0, 0.0, 0.001)", 0.513544146169, 0.673409826437, -0.235473542582, "(0.001, 0.0, 0.0, 0.0, 0.001, 0.0, 0.0, 0.0, 0.001)"
1637149565851365409, 16625, 1636513399, 480415105, base_link, 0.00213901801695, -0.0167603197645, -0.705288582681, 0.708718936831, "(0.0016662145198163142, 0.0, 0.0, 0.0, 0.0016619603672316519, 0.0, 0.0, 0.0, 0.045791453478173594)", -0.00560102143153, -0.0168245508133, -0.0776571040449, "(0.001, 0.0, 0.0, 0.0, 0.001, 0.0, 0.0, 0.0, 0.001)", 0.58238917503, 1.04942226638, -0.233669612458, "(0.001, 0.0, 0.0, 0.0, 0.001, 0.0, 0.0, 0.0, 0.001)"
1637149565870340745, 16626, 1636513399, 499572992, base_link, 0.00210101730454, -0.0167923642279, -0.705505186113, 0.708502670848, "(0.0016662145198163142, 0.0, 0.0, 0.0, 0.0016619603672316519, 0.0, 0.0, 0.0, 0.045791453478173594)", -0.00130395807511, -0.00911491230537, -0.0495004546036, "(0.001, 0.0, 0.0, 0.0, 0.001, 0.0, 0.0, 0.0, 0.001)", 0.261826845925, 0.810228152832, -0.145378045649, "(0.001, 0.0, 0.0, 0.0, 0.001, 0.0, 0.0, 0.0, 0.001)"
1637149565890589747, 16627, 1636513399, 519793033, base_link, 0.00209738930833, -0.0168016335603, -0.705722594962, 0.708285906275, "(0.0016662145198163142, 0.0, 0.0, 0.0, 0.0016619603672316519, 0.0, 0.0, 0.0, 0.045791453478173594)", -0.00136018530817, -0.00846890511437, -0.0748576000604, "(0.001, 0.0, 0.0, 0.0, 0.001, 0.0, 0.0, 0.0, 0.001)", 0.923090162226, 1.24062236094, -0.355588707243, "(0.001, 0.0, 0.0, 0.0, 0.001, 0.0, 0.0, 0.0, 0.001)"
1637149565911392156, 16628, 1636513399, 540664911, base_link, 0.00209532146451, -0.0168255727136, -0.705944180439, 0.708064491296, "(0.0016662145198163142, 0.0, 0.0, 0.0, 0.0016619603672316519, 0.0, 0.0, 0.0, 0.045791453478173594)", 0.00121142931353, -0.00387202050588, -0.0493377253333, "(0.001, 0.0, 0.0, 0.0, 0.001, 0.0, 0.0, 0.0, 0.001)", 0.156014971652, 0.789347955878, -0.109030588162, "(0.001, 0.0, 0.0, 0.0, 0.001, 0.0, 0.0, 0.0, 0.001)"
1637149565929935662, 16629, 1636513399, 559181928, base_link, 0.00213388282359, -0.0168046576255, -0.706155695893, 0.707853927858, "(0.0016662145198163142, 0.0, 0.0, 0.0, 0.0016619603672316519, 0.0, 0.0, 0.0, 0.045791453478173594)", 0.00175379033179, 0.00228022951164, -0.0734621020133, "(0.001, 0.0, 0.0, 0.0, 0.001, 0.0, 0.0, 0.0, 0.001)", 0.922790197378, 1.40672734499, -0.298994830174, "(0.001, 0.0, 0.0, 0.0, 0.001, 0.0, 0.0, 0.0, 0.001)"
1637149565950494464, 16630, 1636513399, 579685926, base_link, 0.00213614032724, -0.0167835288621, -0.70638763843, 0.707622960578, "(0.0016662145198163142, 0.0, 0.0, 0.0, 0.0016619603672316519, 0.0, 0.0, 0.0, 0.045791453478173594)", -0.00093192563902, 0.00217057127536, -0.0510596164427, "(0.001, 0.0, 0.0, 0.0, 0.001, 0.0, 0.0, 0.0, 0.001)", 0.17906986017, 0.877464195056, -0.0120269997276, "(0.001, 0.0, 0.0, 0.0, 0.001, 0.0, 0.0, 0.0, 0.001)"
1637149565970080143, 16631, 1636513399, 599078893, base_link, 0.00216188658253, -0.0167439634813, -0.706624452099, 0.707387340591, "(0.0016662145198163142, 0.0, 0.0, 0.0, 0.0016619603672316519, 0.0, 0.0, 0.0, 0.045791453478173594)", -0.00207843270608, 0.00703719042961, -0.0781019146883, "(0.001, 0.0, 0.0, 0.0, 0.001, 0.0, 0.0, 0.0, 0.001)", 0.149592008739, 1.33584187362, 0.0869258696067, "(0.001, 0.0, 0.0, 0.0, 0.001, 0.0, 0.0, 0.0, 0.001)"
1637149565990567052, 16632, 1636513399, 619724988, base_link, 0.00216239357004, -0.0166924330451, -0.706877448292, 0.707135743567, "(0.0016662145198163142, 0.0, 0.0, 0.0, 0.0016619603672316519, 0.0, 0.0, 0.0, 0.045791453478173594)", -0.00544146752094, 0.00517437659786, -0.0561343915205, "(0.001, 0.0, 0.0, 0.0, 0.001, 0.0, 0.0, 0.0, 0.001)", 0.247056737962, 0.98272575158, -0.129224136914, "(0.001, 0.0, 0.0, 0.0, 0.001, 0.0, 0.0, 0.0, 0.001)"
1637149566010240932, 16633, 1636513399, 639413118, base_link, 0.00216239357004, -0.0166924330451, -0.706877448292, 0.707135743567, "(0.0016662145198163142, 0.0, 0.0, 0.0, 0.0016619603672316519, 0.0, 0.0, 0.0, 0.045791453478173594)", -0.0101118710444, 0.00131836984319, -0.0897788024472, "(0.001, 0.0, 0.0, 0.0, 0.001, 0.0, 0.0, 0.0, 0.001)", -0.605488216664, 1.29083563408, 0.538726387594, "(0.001, 0.0, 0.0, 0.0, 0.001, 0.0, 0.0, 0.0, 0.001)"
1637149566031021770, 16634, 1636513399, 660216093, base_link, 0.00211557188185, -0.0166635672247, -0.707160139004, 0.706853865864, "(0.0016662145198163142, 0.0, 0.0, 0.0, 0.0016619603672316519, 0.0, 0.0, 0.0, 0.045791453478173594)", -0.0105735220737, 0.000634143393458, -0.0634716779287, "(0.001, 0.0, 0.0, 0.0, 0.001, 0.0, 0.0, 0.0, 0.001)", 0.202304503764, 0.702017699967, 0.0801815078241, "(0.001, 0.0, 0.0, 0.0, 0.001, 0.0, 0.0, 0.0, 0.001)"
1637149566052091983, 16635, 1636513399, 679454088, base_link, 0.00202425397159, -0.0165622285919, -0.707752292088, 0.706263610859, "(0.0016662145198163142, 0.0, 0.0, 0.0, 0.0016619603672316519, 0.0, 0.0, 0.0, 0.045791453478173594)", -0.0167254947532, -0.00170109904659, -0.100460057486, "(0.001, 0.0, 0.0, 0.0, 0.001, 0.0, 0.0, 0.0, 0.001)", -0.137243851171, 1.390112659, 0.49713738284, "(0.001, 0.0, 0.0, 0.0, 0.001, 0.0, 0.0, 0.0, 0.001)"
1637149566070305794, 16636, 1636513399, 699352025, base_link, 0.00195904715218, -0.0165004501333, -0.708058766636, 0.70595798761, "(0.0016662145198163142, 0.0, 0.0, 0.0, 0.0016619603672316519, 0.0, 0.0, 0.0, 0.045791453478173594)", -0.0143412727246, -0.000950521212031, -0.0683759613147, "(0.001, 0.0, 0.0, 0.0, 0.001, 0.0, 0.0, 0.0, 0.001)", -0.0690267699496, 0.736504896346, 0.246258885404, "(0.001, 0.0, 0.0, 0.0, 0.001, 0.0, 0.0, 0.0, 0.001)"
1637149566091453565, 16637, 1636513399, 720657110, base_link, 0.00192027424318, -0.0163936403903, -0.708391306463, 0.705626897183, "(0.0016662145198163142, 0.0, 0.0, 0.0, 0.0016619603672316519, 0.0, 0.0, 0.0, 0.045791453478173594)", -0.0240716789046, 0.00370154515888, -0.109333128809, "(0.001, 0.0, 0.0, 0.0, 0.001, 0.0, 0.0, 0.0, 0.001)", 0.593378788316, 1.16557821339, 0.464664651414, "(0.001, 0.0, 0.0, 0.0, 0.001, 0.0, 0.0, 0.0, 0.001)"
1637149566110173825, 16638, 1636513399, 739411115, base_link, 0.00183841354302, -0.0162863889004, -0.708729819546, 0.705289597724, "(0.0016662145198163142, 0.0, 0.0, 0.0, 0.0016619603672316519, 0.0, 0.0, 0.0, 0.045791453478173594)", -0.0193114114946, 0.00311518131072, -0.0745162153875, "(0.001, 0.0, 0.0, 0.0, 0.001, 0.0, 0.0, 0.0, 0.001)", -0.285711261621, 0.6082081885, 0.323937185116, "(0.001, 0.0, 0.0, 0.0, 0.001, 0.0, 0.0, 0.0, 0.001)"
1637149566130212232, 16639, 1636513399, 759321928, base_link, 0.0017896508401, -0.0161976953501, -0.70907400862, 0.704945729908, "(0.0016662145198163142, 0.0, 0.0, 0.0, 0.0016619603672316519, 0.0, 0.0, 0.0, 0.045791453478173594)", -0.0276909005902, 0.00396879005351, -0.115366155075, "(0.001, 0.0, 0.0, 0.0, 0.001, 0.0, 0.0, 0.0, 0.001)", 0.140643736362, 1.28068762779, -0.0219366747078, "(0.001, 0.0, 0.0, 0.0, 0.001, 0.0, 0.0, 0.0, 0.001)"
1637149566153543530, 16640, 1636513399, 780205011, base_link, 0.0017896508401, -0.0161976953501, -0.70907400862, 0.704945729908, "(0.0016662145198163142, 0.0, 0.0, 0.0, 0.0016619603672316519, 0.0, 0.0, 0.0, 0.045791453478173594)", -0.021801731261, 0.00143364419554, -0.0817002254791, "(0.001, 0.0, 0.0, 0.0, 0.001, 0.0, 0.0, 0.0, 0.001)", -0.0565198038564, 0.786885874254, 0.124757889675, "(0.001, 0.0, 0.0, 0.0, 0.001, 0.0, 0.0, 0.0, 0.001)"
1637149566171346409, 16641, 1636513399, 800354957, base_link, 0.00169092074008, -0.0160868520556, -0.709448921908, 0.70457120377, "(0.0016662145198163142, 0.0, 0.0, 0.0, 0.0016619603672316519, 0.0, 0.0, 0.0, 0.045791453478173594)", -0.0274441567566, 0.00239259710841, -0.121659951181, "(0.001, 0.0, 0.0, 0.0, 0.001, 0.0, 0.0, 0.0, 0.001)", 0.224449135462, 0.522337513641, -0.386658018365, "(0.001, 0.0, 0.0, 0.0, 0.001, 0.0, 0.0, 0.0, 0.001)"
1637149566191553987, 16642, 1636513399, 820807933, base_link, 0.00158450628265, -0.0159463098131, -0.710173681279, 0.70384412121, "(0.0016662145198163142, 0.0, 0.0, 0.0, 0.0016619603672316519, 0.0, 0.0, 0.0, 0.045791453478173594)", -0.0153966743504, -0.000358013248914, -0.0834539479825, "(0.001, 0.0, 0.0, 0.0, 0.001, 0.0, 0.0, 0.0, 0.001)", 0.435595477516, 0.92854088803, -0.0588843479142, "(0.001, 0.0, 0.0, 0.0, 0.001, 0.0, 0.0, 0.0, 0.001)"
1637149566211342708, 16643, 1636513399, 840481042, base_link, 0.00151328190018, -0.0159004433049, -0.710547840167, 0.703467591801, "(0.0016662145198163142, 0.0, 0.0, 0.0, 0.0016619603672316519, 0.0, 0.0, 0.0, 0.045791453478173594)", -0.0235169971267, -0.00227507404676, -0.125464036869, "(0.001, 0.0, 0.0, 0.0, 0.001, 0.0, 0.0, 0.0, 0.001)", -0.0469341509723, 0.475139595798, -0.288349321195, "(0.001, 0.0, 0.0, 0.0, 0.001, 0.0, 0.0, 0.0, 0.001)"
1637149566230202621, 16644, 1636513399, 859380006, base_link, 0.00148751928582, -0.0158882867143, -0.710912124556, 0.70309978011, "(0.0016662145198163142, 0.0, 0.0, 0.0, 0.0016619603672316519, 0.0, 0.0, 0.0, 0.045791453478173594)", -0.0088426080119, -0.00319423578782, -0.0842092232419, "(0.001, 0.0, 0.0, 0.0, 0.001, 0.0, 0.0, 0.0, 0.001)", 0.664546683243, 0.461273634172, -0.327957528863, "(0.001, 0.0, 0.0, 0.0, 0.001, 0.0, 0.0, 0.0, 0.001)"
1637149566250711749, 16645, 1636513399, 879880905, base_link, 0.00143221595025, -0.0158628775547, -0.711307996943, 0.702699972505, "(0.0016662145198163142, 0.0, 0.0, 0.0, 0.0016619603672316519, 0.0, 0.0, 0.0, 0.045791453478173594)", -0.0131334672471, -0.00544955186845, -0.129929536982, "(0.001, 0.0, 0.0, 0.0, 0.001, 0.0, 0.0, 0.0, 0.001)", 0.126817098343, 0.716960801489, -0.2300096047, "(0.001, 0.0, 0.0, 0.0, 0.001, 0.0, 0.0, 0.0, 0.001)"
1637149566270684885, 16646, 1636513399, 899657964, base_link, 0.0014215975223, -0.0158840419578, -0.711690543255, 0.70231207231, "(0.0016662145198163142, 0.0, 0.0, 0.0, 0.0016619603672316519, 0.0, 0.0, 0.0, 0.045791453478173594)", -0.0040019790161, -0.00422501926157, -0.0875933013084, "(0.001, 0.0, 0.0, 0.0, 0.001, 0.0, 0.0, 0.0, 0.001)", 0.11980581774, 0.347668158678, -0.310098504052, "(0.001, 0.0, 0.0, 0.0, 0.001, 0.0, 0.0, 0.0, 0.001)"
1637149566289934233, 16647, 1636513399, 919138908, base_link, 0.00140480057617, -0.0159012866732, -0.712110290648, 0.701886108689, "(0.0016662145198163142, 0.0, 0.0, 0.0, 0.0016619603672316519, 0.0, 0.0, 0.0, 0.045791453478173594)", -0.0022697122742, -0.00804565800771, -0.138492839477, "(0.001, 0.0, 0.0, 0.0, 0.001, 0.0, 0.0, 0.0, 0.001)", 0.425895158738, 0.840029039609, -0.290982174582, "(0.001, 0.0, 0.0, 0.0, 0.001, 0.0, 0.0, 0.0, 0.001)"
1637149566311784615, 16648, 1636513399, 940885066, base_link, 0.00139110129396, -0.0159191015551, -0.712528552255, 0.701461124557, "(0.0016662145198163142, 0.0, 0.0, 0.0, 0.0016619603672316519, 0.0, 0.0, 0.0, 0.045791453478173594)", -0.000264484954738, -0.0042886322679, -0.0940761327503, "(0.001, 0.0, 0.0, 0.0, 0.001, 0.0, 0.0, 0.0, 0.001)", -0.101677174473, 0.400914816813, -0.048691680147, "(0.001, 0.0, 0.0, 0.0, 0.001, 0.0, 0.0, 0.0, 0.001)"
1637149566331236052, 16649, 1636513399, 960448980, base_link, 0.00138632444305, -0.0159694704743, -0.712962701049, 0.701018716605, "(0.0016662145198163142, 0.0, 0.0, 0.0, 0.0016619603672316519, 0.0, 0.0, 0.0, 0.045791453478173594)", 0.00281262161348, -0.00975252186993, -0.146466027243, "(0.001, 0.0, 0.0, 0.0, 0.001, 0.0, 0.0, 0.0, 0.001)", 0.405319628629, 0.841291230214, -0.359716495875, "(0.001, 0.0, 0.0, 0.0, 0.001, 0.0, 0.0, 0.0, 0.001)"
1637149566350564314, 16650, 1636513399, 979737043, base_link, 0.00137225676912, -0.0159946472835, -0.713417992243, 0.700554820491, "(0.0016662145198163142, 0.0, 0.0, 0.0, 0.0016619603672316519, 0.0, 0.0, 0.0, 0.045791453478173594)", 0.0013632297777, -0.00619999963473, -0.101044872476, "(0.001, 0.0, 0.0, 0.0, 0.001, 0.0, 0.0, 0.0, 0.001)", 0.0543316233848, 0.599100901798, 0.0402377332869, "(0.001, 0.0, 0.0, 0.0, 0.001, 0.0, 0.0, 0.0, 0.001)"
1637149566370279456, 16651, 1636513399, 999391078, base_link, 0.00138681991411, -0.0160244505453, -0.713871140223, 0.700092343103, "(0.0016662145198163142, 0.0, 0.0, 0.0, 0.0016619603672316519, 0.0, 0.0, 0.0, 0.045791453478173594)", 0.00336260759846, -0.00638082377488, -0.154846814784, "(0.001, 0.0, 0.0, 0.0, 0.001, 0.0, 0.0, 0.0, 0.001)", 0.261980335639, 0.915566968524, -0.0755857680226, "(0.001, 0.0, 0.0, 0.0, 0.001, 0.0, 0.0, 0.0, 0.001)"
1637149566391765081, 16652, 1636513400, 20885944, base_link, 0.00137652323021, -0.01605053928, -0.714352751117, 0.699600337582, "(0.0016662145198163142, 0.0, 0.0, 0.0, 0.0016619603672316519, 0.0, 0.0, 0.0, 0.045791453478173594)", 0.00129748197357, -0.00545047688986, -0.10779176101, "(0.001, 0.0, 0.0, 0.0, 0.001, 0.0, 0.0, 0.0, 0.001)", 0.374115992926, 0.611977461848, -0.133612654753, "(0.001, 0.0, 0.0, 0.0, 0.001, 0.0, 0.0, 0.0, 0.001)"
1637149566409921706, 16653, 1636513400, 39115905, base_link, 0.00140892768522, -0.0160252714872, -0.714838745443, 0.699104265192, "(0.0016662145198163142, 0.0, 0.0, 0.0, 0.0016619603672316519, 0.0, 0.0, 0.0, 0.045791453478173594)", 0.00151071976848, 0.000580379485016, -0.16434834198, "(0.001, 0.0, 0.0, 0.0, 0.001, 0.0, 0.0, 0.0, 0.001)", 0.48007105872, 1.06252653529, 0.420895772249, "(0.001, 0.0, 0.0, 0.0, 0.001, 0.0, 0.0, 0.0, 0.001)"
1637149566430994519, 16654, 1636513400, 60208082, base_link, 0.0014245168479, -0.0159658012087, -0.715318097695, 0.698615117968, "(0.0016662145198163142, 0.0, 0.0, 0.0, 0.0016619603672316519, 0.0, 0.0, 0.0, 0.045791453478173594)", -0.00440441188808, 0.0052162183415, -0.110591444632, "(0.001, 0.0, 0.0, 0.0, 0.001, 0.0, 0.0, 0.0, 0.001)", 0.850794382747, 0.460316718477, 0.324054592764, "(0.001, 0.0, 0.0, 0.0, 0.001, 0.0, 0.0, 0.0, 0.001)"
1637149566449735033, 16655, 1636513400, 78969001, base_link, 0.00144081792599, -0.0159060927063, -0.715814179703, 0.698108143767, "(0.0016662145198163142, 0.0, 0.0, 0.0, 0.0016619603672316519, 0.0, 0.0, 0.0, 0.045791453478173594)", -0.00801704660901, 0.00943735534258, -0.167581636975, "(0.001, 0.0, 0.0, 0.0, 0.001, 0.0, 0.0, 0.0, 0.001)", 0.30394481098, 1.00834905903, 0.366708228592, "(0.001, 0.0, 0.0, 0.0, 0.001, 0.0, 0.0, 0.0, 0.001)"
1637149566470335366, 16656, 1636513400, 99554061, base_link, 0.0014830303743, -0.0157956949055, -0.716307553916, 0.697604318254, "(0.0016662145198163142, 0.0, 0.0, 0.0, 0.0016619603672316519, 0.0, 0.0, 0.0, 0.045791453478173594)", -0.00777925947136, 0.0122388323936, -0.113050217285, "(0.001, 0.0, 0.0, 0.0, 0.001, 0.0, 0.0, 0.0, 0.001)", 0.425158734457, 0.729768051935, 0.368843194306, "(0.001, 0.0, 0.0, 0.0, 0.001, 0.0, 0.0, 0.0, 0.001)"
1637149566490371977, 16657, 1636513400, 119601964, base_link, 0.00149206666739, -0.0157055021917, -0.716813063138, 0.697086898065, "(0.0016662145198163142, 0.0, 0.0, 0.0, 0.0016619603672316519, 0.0, 0.0, 0.0, 0.045791453478173594)", -0.0162312526136, 0.0165828543995, -0.172527142485, "(0.001, 0.0, 0.0, 0.0, 0.001, 0.0, 0.0, 0.0, 0.001)", 0.4974953957, 0.577441523915, 0.274838329331, "(0.001, 0.0, 0.0, 0.0, 0.001, 0.0, 0.0, 0.0, 0.001)"
1637149566511174947, 16658, 1636513400, 140322923, base_link, 0.00151160516139, -0.0156198751979, -0.717311687017, 0.69657568018, "(0.0016662145198163142, 0.0, 0.0, 0.0, 0.0016619603672316519, 0.0, 0.0, 0.0, 0.045791453478173594)", -0.0080287054634, 0.0108462154514, -0.113946765553, "(0.001, 0.0, 0.0, 0.0, 0.001, 0.0, 0.0, 0.0, 0.001)", -0.0268018131024, 0.73442047541, 0.175806421178, "(0.001, 0.0, 0.0, 0.0, 0.001, 0.0, 0.0, 0.0, 0.001)"
1637149566530198515, 16659, 1636513400, 159285068, base_link, 0.00153745185936, -0.0155257487013, -0.71781748375, 0.69605649727, "(0.0016662145198163142, 0.0, 0.0, 0.0, 0.0016619603672316519, 0.0, 0.0, 0.0, 0.045791453478173594)", -0.0136785697781, 0.0171241655153, -0.174123506409, "(0.001, 0.0, 0.0, 0.0, 0.001, 0.0, 0.0, 0.0, 0.001)", 0.557809063769, 0.68980947141, -0.116688137263, "(0.001, 0.0, 0.0, 0.0, 0.001, 0.0, 0.0, 0.0, 0.001)"
1637149566551824975, 16660, 1636513400, 180982112, base_link, 0.00154083312145, -0.0154791184028, -0.71832052722, 0.695538383485, "(0.0016662145198163142, 0.0, 0.0, 0.0, 0.0016619603672316519, 0.0, 0.0, 0.0, 0.045791453478173594)", -0.00651925964566, 0.00672886413743, -0.115081859652, "(0.001, 0.0, 0.0, 0.0, 0.001, 0.0, 0.0, 0.0, 0.001)", -0.0866044361461, 0.566530416312, 0.117881099399, "(0.001, 0.0, 0.0, 0.0, 0.001, 0.0, 0.0, 0.0, 0.001)"
1637149566571274874, 16661, 1636513400, 199846029, base_link, 0.00157153375443, -0.0153935320368, -0.718804628112, 0.695039909687, "(0.0016662145198163142, 0.0, 0.0, 0.0, 0.0016619603672316519, 0.0, 0.0, 0.0, 0.045791453478173594)", -0.0109263718199, 0.0129607456054, -0.170152479006, "(0.001, 0.0, 0.0, 0.0, 0.001, 0.0, 0.0, 0.0, 0.001)", 1.06510780567, 0.810528455461, -0.152425906251, "(0.001, 0.0, 0.0, 0.0, 0.001, 0.0, 0.0, 0.0, 0.001)"
1637149566591018106, 16662, 1636513400, 220133066, base_link, 0.0016432607184, -0.0152987266275, -0.719306274083, 0.694522665377, "(0.0016662145198163142, 0.0, 0.0, 0.0, 0.0016619603672316519, 0.0, 0.0, 0.0, 0.045791453478173594)", -0.00549999564663, 0.0144460994389, -0.114572876495, "(0.001, 0.0, 0.0, 0.0, 0.001, 0.0, 0.0, 0.0, 0.001)", 0.582938573311, 0.43867783521, -0.14587325687, "(0.001, 0.0, 0.0, 0.0, 0.001, 0.0, 0.0, 0.0, 0.001)"
1637149566611790770, 16663, 1636513400, 241056919, base_link, 0.00171515357481, -0.0151712197513, -0.719789854237, 0.694024104824, "(0.0016662145198163142, 0.0, 0.0, 0.0, 0.0016619603672316519, 0.0, 0.0, 0.0, 0.045791453478173594)", -0.00922218913018, 0.0274442504123, -0.168856388449, "(0.001, 0.0, 0.0, 0.0, 0.001, 0.0, 0.0, 0.0, 0.001)", 0.609911300636, 1.05719480411, 0.0190623373393, "(0.001, 0.0, 0.0, 0.0, 0.001, 0.0, 0.0, 0.0, 0.001)"
1637149566630220451, 16664, 1636513400, 259452104, base_link, 0.00178454481644, -0.015027344029, -0.720288448949, 0.693509585112, "(0.0016662145198163142, 0.0, 0.0, 0.0, 0.0016619603672316519, 0.0, 0.0, 0.0, 0.045791453478173594)", -0.00974323614806, 0.0212394539792, -0.11455014235, "(0.001, 0.0, 0.0, 0.0, 0.001, 0.0, 0.0, 0.0, 0.001)", 0.73735816074, 0.579437654029, -0.419045664674, "(0.001, 0.0, 0.0, 0.0, 0.001, 0.0, 0.0, 0.0, 0.001)"
1637149566649764782, 16665, 1636513400, 279012918, base_link, 0.00184058369458, -0.0149322605524, -0.720792487377, 0.692987611713, "(0.0016662145198163142, 0.0, 0.0, 0.0, 0.0016619603672316519, 0.0, 0.0, 0.0, 0.045791453478173594)", -0.0104028861426, 0.0286806927722, -0.172351985571, "(0.001, 0.0, 0.0, 0.0, 0.001, 0.0, 0.0, 0.0, 0.001)", -0.258741905678, 0.685065768122, -0.0801682240492, "(0.001, 0.0, 0.0, 0.0, 0.001, 0.0, 0.0, 0.0, 0.001)"
1637149566674951465, 16666, 1636513400, 303555965, base_link, 0.00189546589046, -0.0148315478417, -0.721291137771, 0.692470596467, "(0.0016662145198163142, 0.0, 0.0, 0.0, 0.0016619603672316519, 0.0, 0.0, 0.0, 0.045791453478173594)", -0.00696905146152, 0.0161245779917, -0.116023231659, "(0.001, 0.0, 0.0, 0.0, 0.001, 0.0, 0.0, 0.0, 0.001)", 0.391450241958, 0.554105834737, -0.38873977339, "(0.001, 0.0, 0.0, 0.0, 0.001, 0.0, 0.0, 0.0, 0.001)"
1637149566689782453, 16667, 1636513400, 319016933, base_link, 0.00191190625753, -0.0147709133167, -0.721797772784, 0.691943740444, "(0.0016662145198163142, 0.0, 0.0, 0.0, 0.0016619603672316519, 0.0, 0.0, 0.0, 0.045791453478173594)", -0.00996760233036, 0.0162129592268, -0.174468353168, "(0.001, 0.0, 0.0, 0.0, 0.001, 0.0, 0.0, 0.0, 0.001)", -0.0451026631289, 0.947630190573, -0.314936628508, "(0.001, 0.0, 0.0, 0.0, 0.001, 0.0, 0.0, 0.0, 0.001)"
1637149566711047654, 16668, 1636513400, 340297937, base_link, 0.00190432103528, -0.0147377974398, -0.722300097073, 0.691420089856, "(0.0018103989452900593, 0.0, 0.0, 0.0, 0.001802783122614851, 0.0, 0.0, 0.0, 0.04606396139394975)", -0.00585289344517, 0.00566001427492, -0.116253461524, "(0.001, 0.0, 0.0, 0.0, 0.001, 0.0, 0.0, 0.0, 0.001)", -0.388246899294, 0.229860111384, -0.0284781548575, "(0.001, 0.0, 0.0, 0.0, 0.001, 0.0, 0.0, 0.0, 0.001)"
1637149566732032391, 16669, 1636513400, 360632896, base_link, 0.0018872870974, -0.0147484446894, -0.722815309468, 0.690881284973, "(0.0018103989452900593, 0.0, 0.0, 0.0, 0.001802783122614851, 0.0, 0.0, 0.0, 0.04606396139394975)", -0.00613021175747, -0.00186435805165, -0.177261854426, "(0.001, 0.0, 0.0, 0.0, 0.001, 0.0, 0.0, 0.0, 0.001)", 0.224112617488, 0.652259008022, -0.40302658483, "(0.001, 0.0, 0.0, 0.0, 0.001, 0.0, 0.0, 0.0, 0.001)"
1637149566750236342, 16670, 1636513400, 379323005, base_link, 0.00187147112543, -0.0147704183547, -0.723347608673, 0.690323525142, "(0.0018103989452900593, 0.0, 0.0, 0.0, 0.001802783122614851, 0.0, 0.0, 0.0, 0.04606396139394975)", -0.00117416380752, -0.00423764381445, -0.120564290454, "(0.001, 0.0, 0.0, 0.0, 0.001, 0.0, 0.0, 0.0, 0.001)", -0.680102151884, 0.293870241009, -0.153771105579, "(0.001, 0.0, 0.0, 0.0, 0.001, 0.0, 0.0, 0.0, 0.001)"
1637149566769927829, 16671, 1636513400, 398849010, base_link, 0.00188575366804, -0.0148425397159, -0.723900425654, 0.689742210312, "(0.0018103989452900593, 0.0, 0.0, 0.0, 0.001802783122614851, 0.0, 0.0, 0.0, 0.04606396139394975)", 0.00620499756747, -0.0100604535077, -0.187892190454, "(0.001, 0.0, 0.0, 0.0, 0.001, 0.0, 0.0, 0.0, 0.001)", -0.186109914747, 0.697516682257, -0.443887052174, "(0.001, 0.0, 0.0, 0.0, 0.001, 0.0, 0.0, 0.0, 0.001)"
1637149566792074807, 16672, 1636513400, 421278953, base_link, 0.00183108178414, -0.014917036901, -0.724474165698, 0.689138093843, "(0.0018103989452900593, 0.0, 0.0, 0.0, 0.001802783122614851, 0.0, 0.0, 0.0, 0.04606396139394975)", 0.00319759417116, -0.0127031513829, -0.130514443876, "(0.001, 0.0, 0.0, 0.0, 0.001, 0.0, 0.0, 0.0, 0.001)", -0.575202684153, 0.71184483481, -0.137099428408, "(0.001, 0.0, 0.0, 0.0, 0.001, 0.0, 0.0, 0.0, 0.001)"
1637149566809790271, 16673, 1636513400, 439074993, base_link, 0.00182546509292, -0.0149942758384, -0.725079816869, 0.688499163789, "(0.0018103989452900593, 0.0, 0.0, 0.0, 0.001802783122614851, 0.0, 0.0, 0.0, 0.04606396139394975)", 0.00809871960495, -0.0181652046489, -0.203536008918, "(0.001, 0.0, 0.0, 0.0, 0.001, 0.0, 0.0, 0.0, 0.001)", -0.529592521168, 0.276156569413, 0.114396042008, "(0.001, 0.0, 0.0, 0.0, 0.001, 0.0, 0.0, 0.0, 0.001)"
1637149566831547760, 16674, 1636513400, 460675954, base_link, 0.00181973870432, -0.0150619009449, -0.725690423669, 0.687854080955, "(0.0018103989452900593, 0.0, 0.0, 0.0, 0.001802783122614851, 0.0, 0.0, 0.0, 0.04606396139394975)", 0.00585360372214, -0.0109056382766, -0.141105804851, "(0.001, 0.0, 0.0, 0.0, 0.001, 0.0, 0.0, 0.0, 0.001)", 0.359032917076, 0.551691498815, 0.265990357006, "(0.001, 0.0, 0.0, 0.0, 0.001, 0.0, 0.0, 0.0, 0.001)"
1637149566850832082, 16675, 1636513400, 479878902, base_link, 0.00172716974467, -0.0151482202305, -0.726335539774, 0.68717118098, "(0.0018103989452900593, 0.0, 0.0, 0.0, 0.001802783122614851, 0.0, 0.0, 0.0, 0.04606396139394975)", 0.0028316576142, -0.0244688448003, -0.217730175949, "(0.001, 0.0, 0.0, 0.0, 0.001, 0.0, 0.0, 0.0, 0.001)", -0.999509242957, 0.945983443738, 0.263844304065, "(0.001, 0.0, 0.0, 0.0, 0.001, 0.0, 0.0, 0.0, 0.001)"
1637149566870141600, 16676, 1636513400, 499274969, base_link, 0.00163873370428, -0.0152391341066, -0.726991614744, 0.686475254787, "(0.0018103989452900593, 0.0, 0.0, 0.0, 0.001802783122614851, 0.0, 0.0, 0.0, 0.04606396139394975)", 1.00370374588e-05, -0.0213880474871, -0.150894881815, "(0.001, 0.0, 0.0, 0.0, 0.001, 0.0, 0.0, 0.0, 0.001)", -0.25304475006, 0.552573629263, 0.172049384183, "(0.001, 0.0, 0.0, 0.0, 0.001, 0.0, 0.0, 0.0, 0.001)"
1637149566890319326, 16677, 1636513400, 519575119, base_link, 0.0014980090019, -0.0153105429992, -0.727687416048, 0.685736368998, "(0.0018103989452900593, 0.0, 0.0, 0.0, 0.001802783122614851, 0.0, 0.0, 0.0, 0.04606396139394975)", -0.00707610944633, -0.0364390605228, -0.236057123332, "(0.001, 0.0, 0.0, 0.0, 0.001, 0.0, 0.0, 0.0, 0.001)", 0.0118755026281, 1.27753164207, 0.634097407444, "(0.001, 0.0, 0.0, 0.0, 0.001, 0.0, 0.0, 0.0, 0.001)"
1637149566912590594, 16678, 1636513400, 541812896, base_link, 0.00129438983615, -0.0153821149469, -0.728374980147, 0.685004819976, "(0.0018103989452900593, 0.0, 0.0, 0.0, 0.001802783122614851, 0.0, 0.0, 0.0, 0.04606396139394975)", -0.012002686424, -0.0296947820259, -0.159097533026, "(0.001, 0.0, 0.0, 0.0, 0.001, 0.0, 0.0, 0.0, 0.001)", -0.283061051472, 0.420055723408, 0.347988175943, "(0.001, 0.0, 0.0, 0.0, 0.001, 0.0, 0.0, 0.0, 0.001)"
1637149566929801651, 16679, 1636513400, 558804988, base_link, 0.00129438983615, -0.0153821149469, -0.728374980147, 0.685004819976, "(0.0018103989452900593, 0.0, 0.0, 0.0, 0.001802783122614851, 0.0, 0.0, 0.0, 0.04606396139394975)", -0.0187948068858, -0.0538969030828, -0.24213796587, "(0.001, 0.0, 0.0, 0.0, 0.001, 0.0, 0.0, 0.0, 0.001)", 0.440997978322, 0.432281888305, 0.270179140596, "(0.001, 0.0, 0.0, 0.0, 0.001, 0.0, 0.0, 0.0, 0.001)"
1637149566950917606, 16680, 1636513400, 580049991, base_link, 0.000799384425848, -0.0155846362825, -0.729769246709, 0.683515418008, "(0.0018103989452900593, 0.0, 0.0, 0.0, 0.001802783122614851, 0.0, 0.0, 0.0, 0.04606396139394975)", -0.0177839144518, -0.041769000626, -0.161753857681, "(0.001, 0.0, 0.0, 0.0, 0.001, 0.0, 0.0, 0.0, 0.001)", 0.229478615719, 0.669207159142, 0.427560775095, "(0.001, 0.0, 0.0, 0.0, 0.001, 0.0, 0.0, 0.0, 0.001)"
1637149566969988897, 16681, 1636513400, 599297046, base_link, 0.000557493937664, -0.0156327644544, -0.730448321748, 0.682788807123, "(0.0018103989452900593, 0.0, 0.0, 0.0, 0.001802783122614851, 0.0, 0.0, 0.0, 0.04606396139394975)", -0.0321495091742, -0.0581079194006, -0.24044601782, "(0.001, 0.0, 0.0, 0.0, 0.001, 0.0, 0.0, 0.0, 0.001)", 1.5692351497, 0.630677605915, 0.525820351198, "(0.001, 0.0, 0.0, 0.0, 0.001, 0.0, 0.0, 0.0, 0.001)"
1637149566990966004, 16682, 1636513400, 620126962, base_link, 0.000341755362916, -0.0156630119229, -0.731138573542, 0.682049074143, "(0.0018103989452900593, 0.0, 0.0, 0.0, 0.001802783122614851, 0.0, 0.0, 0.0, 0.04606396139394975)", -0.0216289974167, -0.0342495654851, -0.16087802644, "(0.001, 0.0, 0.0, 0.0, 0.001, 0.0, 0.0, 0.0, 0.001)", 1.39453475907, 0.609950198814, 0.366474300682, "(0.001, 0.0, 0.0, 0.0, 0.001, 0.0, 0.0, 0.0, 0.001)"
1637149567010306552, 16683, 1636513400, 639523983, base_link, 0.000141120323226, -0.0156695677949, -0.731795013934, 0.681344628152, "(0.0018103989452900593, 0.0, 0.0, 0.0, 0.001802783122614851, 0.0, 0.0, 0.0, 0.04606396139394975)", -0.0339874902357, -0.0426671424201, -0.234590002603, "(0.001, 0.0, 0.0, 0.0, 0.001, 0.0, 0.0, 0.0, 0.001)", 1.66868238603, 0.363914005042, 0.290244090844, "(0.001, 0.0, 0.0, 0.0, 0.001, 0.0, 0.0, 0.0, 0.001)"
1637149567032923266, 16684, 1636513400, 661338090, base_link, -5.55114677536e-06, -0.015674491632, -0.732435956072, 0.68065547859, "(0.0018103989452900593, 0.0, 0.0, 0.0, 0.001802783122614851, 0.0, 0.0, 0.0, 0.04606396139394975)", -0.0191147502805, -0.0229918860941, -0.152808975193, "(0.001, 0.0, 0.0, 0.0, 0.001, 0.0, 0.0, 0.0, 0.001)", 1.80664128092, 0.267742488011, -0.244965732297, "(0.001, 0.0, 0.0, 0.0, 0.001, 0.0, 0.0, 0.0, 0.001)"
1637149567049896926, 16685, 1636513400, 679126977, base_link, -9.98535154885e-05, -0.0156385530811, -0.733086300401, 0.679955808749, "(0.0018103989452900593, 0.0, 0.0, 0.0, 0.001802783122614851, 0.0, 0.0, 0.0, 0.04606396139394975)", -0.0252532383885, -0.023258563099, -0.227274752371, "(0.001, 0.0, 0.0, 0.0, 0.001, 0.0, 0.0, 0.0, 0.001)", 1.52708915206, 0.36486403735, -0.237334514106, "(0.001, 0.0, 0.0, 0.0, 0.001, 0.0, 0.0, 0.0, 0.001)"
1637149567071639431, 16686, 1636513400, 699677944, base_link, -8.82286152155e-05, -0.0156077052891, -0.733729022517, 0.679262919103, "(0.0018103989452900593, 0.0, 0.0, 0.0, 0.001802783122614851, 0.0, 0.0, 0.0, 0.04606396139394975)", -0.00931814575608, -0.00364694787391, -0.151819680784, "(0.001, 0.0, 0.0, 0.0, 0.001, 0.0, 0.0, 0.0, 0.001)", 1.45910210287, -0.25884226926, -0.409956284363, "(0.001, 0.0, 0.0, 0.0, 0.001, 0.0, 0.0, 0.0, 0.001)"
1637149567090948789, 16687, 1636513400, 720125913, base_link, 3.68161043111e-05, -0.0155156754258, -0.734409655216, 0.678529086175, "(0.0018103989452900593, 0.0, 0.0, 0.0, 0.001802783122614851, 0.0, 0.0, 0.0, 0.04606396139394975)", -0.00437765597254, 0.0167036104085, -0.234260766502, "(0.001, 0.0, 0.0, 0.0, 0.001, 0.0, 0.0, 0.0, 0.001)", 1.96726938431, 0.103888768332, -0.335755202003, "(0.001, 0.0, 0.0, 0.0, 0.001, 0.0, 0.0, 0.0, 0.001)"
1637149567111267533, 16688, 1636513400, 740447998, base_link, 0.000194591469881, -0.0153784609901, -0.735088790817, 0.677796381435, "(0.0018103989452900593, 0.0, 0.0, 0.0, 0.001802783122614851, 0.0, 0.0, 0.0, 0.04606396139394975)", -0.000979485385006, 0.0264264971864, -0.158844886196, "(0.001, 0.0, 0.0, 0.0, 0.001, 0.0, 0.0, 0.0, 0.001)", 0.646557282949, -0.0969179174293, -0.281422222703, "(0.001, 0.0, 0.0, 0.0, 0.001, 0.0, 0.0, 0.0, 0.001)"
1637149567130337470, 16689, 1636513400, 759516000, base_link, 0.000423373342403, -0.0152716183879, -0.735816603283, 0.677008511586, "(0.0018103989452900593, 0.0, 0.0, 0.0, 0.001802783122614851, 0.0, 0.0, 0.0, 0.04606396139394975)", 0.0074563170913, 0.0473120893549, -0.249709804972, "(0.001, 0.0, 0.0, 0.0, 0.001, 0.0, 0.0, 0.0, 0.001)", 1.2177522041, -0.0290971685206, -0.568279306659, "(0.001, 0.0, 0.0, 0.0, 0.001, 0.0, 0.0, 0.0, 0.001)"
1637149567152673779, 16690, 1636513400, 781850099, base_link, 0.000669270520441, -0.0151303850029, -0.73657457703, 0.676186746395, "(0.0018103989452900593, 0.0, 0.0, 0.0, 0.001802783122614851, 0.0, 0.0, 0.0, 0.04606396139394975)", 0.00755088174841, 0.0394253618662, -0.17444441834, "(0.001, 0.0, 0.0, 0.0, 0.001, 0.0, 0.0, 0.0, 0.001)", 0.287642811518, 0.0928640882126, -0.240018988384, "(0.001, 0.0, 0.0, 0.0, 0.001, 0.0, 0.0, 0.0, 0.001)"
1637149567171483449, 16691, 1636513400, 800648927, base_link, 0.000971442195079, -0.015030491007, -0.737352436283, 0.675340303364, "(0.0018103989452900593, 0.0, 0.0, 0.0, 0.001802783122614851, 0.0, 0.0, 0.0, 0.04606396139394975)", 0.0213306282197, 0.0640213041271, -0.271359025565, "(0.001, 0.0, 0.0, 0.0, 0.001, 0.0, 0.0, 0.0, 0.001)", 0.601000248158, -0.00663156371224, -0.4215426551, "(0.001, 0.0, 0.0, 0.0, 0.001, 0.0, 0.0, 0.0, 0.001)"
1637149567190541550, 16692, 1636513400, 819655895, base_link, 0.00122449252522, -0.0149209667216, -0.738156202327, 0.674463702757, "(0.0018103989452900593, 0.0, 0.0, 0.0, 0.001802783122614851, 0.0, 0.0, 0.0, 0.04606396139394975)", 0.0139148870461, 0.0401982681936, -0.187506557822, "(0.001, 0.0, 0.0, 0.0, 0.001, 0.0, 0.0, 0.0, 0.001)", 0.237880510355, 0.370254565069, -0.118789060033, "(0.001, 0.0, 0.0, 0.0, 0.001, 0.0, 0.0, 0.0, 0.001)"
1637149567210677753, 16693, 1636513400, 839876890, base_link, 0.00143870147585, -0.0148091963834, -0.738979698394, 0.673563377272, "(0.0018103989452900593, 0.0, 0.0, 0.0, 0.001802783122614851, 0.0, 0.0, 0.0, 0.04606396139394975)", 0.0157385410793, 0.0566406677289, -0.287789865995, "(0.001, 0.0, 0.0, 0.0, 0.001, 0.0, 0.0, 0.0, 0.001)", 0.0819503370259, 0.245446577504, -0.260265660038, "(0.001, 0.0, 0.0, 0.0, 0.001, 0.0, 0.0, 0.0, 0.001)"
1637149567232760198, 16694, 1636513400, 861941099, base_link, 0.0016657618116, -0.0147555527325, -0.73981209359, 0.672649659986, "(0.0018103989452900593, 0.0, 0.0, 0.0, 0.001802783122614851, 0.0, 0.0, 0.0, 0.04606396139394975)", 0.0133105039796, 0.0325562243341, -0.196809879659, "(0.001, 0.0, 0.0, 0.0, 0.001, 0.0, 0.0, 0.0, 0.001)", 0.351776002242, 0.36090044092, -0.234335042214, "(0.001, 0.0, 0.0, 0.0, 0.001, 0.0, 0.0, 0.0, 0.001)"
1637149567252421393, 16695, 1636513400, 881663084, base_link, 0.00180653588731, -0.0146819045019, -0.740670198218, 0.671705914505, "(0.0018103989452900593, 0.0, 0.0, 0.0, 0.001802783122614851, 0.0, 0.0, 0.0, 0.04606396139394975)", 0.0139508626718, 0.039976467356, -0.300811453573, "(0.001, 0.0, 0.0, 0.0, 0.001, 0.0, 0.0, 0.0, 0.001)", -0.354196545152, 0.757480434897, -0.0681771311479, "(0.001, 0.0, 0.0, 0.0, 0.001, 0.0, 0.0, 0.0, 0.001)"
1637149567270701061, 16696, 1636513400, 899656057, base_link, 0.00195915336965, -0.0146225724623, -0.741513377927, 0.670775858576, "(0.0018103989452900593, 0.0, 0.0, 0.0, 0.001802783122614851, 0.0, 0.0, 0.0, 0.04606396139394975)", 0.00794308479556, 0.0229101709101, -0.202188309228, "(0.001, 0.0, 0.0, 0.0, 0.001, 0.0, 0.0, 0.0, 0.001)", 0.105469548521, 0.369571419402, -0.276235551304, "(0.001, 0.0, 0.0, 0.0, 0.001, 0.0, 0.0, 0.0, 0.001)"
1637149567289819762, 16697, 1636513400, 919064998, base_link, 0.00201853234144, -0.0145955904614, -0.742376564373, 0.669820820023, "(0.0018103989452900593, 0.0, 0.0, 0.0, 0.001802783122614851, 0.0, 0.0, 0.0, 0.04606396139394975)", 0.00615138100014, 0.0210957718927, -0.306114433987, "(0.001, 0.0, 0.0, 0.0, 0.001, 0.0, 0.0, 0.0, 0.001)", -0.200600723342, 0.830645345932, -0.192749836165, "(0.001, 0.0, 0.0, 0.0, 0.001, 0.0, 0.0, 0.0, 0.001)"
1637149567310463876, 16698, 1636513400, 939697027, base_link, 0.00208946963389, -0.0145605947815, -0.743218167356, 0.66888741871, "(0.0018103989452900593, 0.0, 0.0, 0.0, 0.001802783122614851, 0.0, 0.0, 0.0, 0.04606396139394975)", 0.00269522456755, 0.0109834252395, -0.202201491157, "(0.001, 0.0, 0.0, 0.0, 0.001, 0.0, 0.0, 0.0, 0.001)", -0.0587905142852, 0.423929336487, -0.140988661222, "(0.001, 0.0, 0.0, 0.0, 0.001, 0.0, 0.0, 0.0, 0.001)"
1637149567330862617, 16699, 1636513400, 960064888, base_link, 0.00215930758613, -0.0145334310392, -0.7440501029, 0.6679622453, "(0.0018103989452900593, 0.0, 0.0, 0.0, 0.001802783122614851, 0.0, 0.0, 0.0, 0.04606396139394975)", 0.00321667025899, 0.0139229331453, -0.301454630254, "(0.001, 0.0, 0.0, 0.0, 0.001, 0.0, 0.0, 0.0, 0.001)", 0.179328975988, 0.752925006228, -0.36324340293, "(0.001, 0.0, 0.0, 0.0, 0.001, 0.0, 0.0, 0.0, 0.001)"
1637149567350184620, 16700, 1636513400, 979358911, base_link, 0.00218452112903, -0.0145000453118, -0.744880622289, 0.66703660701, "(0.0018103989452900593, 0.0, 0.0, 0.0, 0.001802783122614851, 0.0, 0.0, 0.0, 0.04606396139394975)", -0.000378866086302, 0.00577096409907, -0.198600317827, "(0.001, 0.0, 0.0, 0.0, 0.001, 0.0, 0.0, 0.0, 0.001)", -0.105985329865, 0.364829165126, -0.0737362423371, "(0.001, 0.0, 0.0, 0.0, 0.001, 0.0, 0.0, 0.0, 0.001)"
1637149567370291576, 16701, 1636513400, 999366998, base_link, 0.00222518404905, -0.0144645954064, -0.745693357375, 0.666128546756, "(0.0018103989452900593, 0.0, 0.0, 0.0, 0.001802783122614851, 0.0, 0.0, 0.0, 0.04606396139394975)", -0.00253505456399, 0.00947806853979, -0.295402909759, "(0.001, 0.0, 0.0, 0.0, 0.001, 0.0, 0.0, 0.0, 0.001)", 0.219057890366, 0.894497843913, -0.0297782178239, "(0.001, 0.0, 0.0, 0.0, 0.001, 0.0, 0.0, 0.0, 0.001)"
1637149567391735487, 16702, 1636513401, 20947933, base_link, 0.0021988378463, -0.0144440513545, -0.746518659849, 0.665204047635, "(0.0018103989452900593, 0.0, 0.0, 0.0, 0.001802783122614851, 0.0, 0.0, 0.0, 0.04606396139394975)", -0.00485183404444, -0.000213104031089, -0.197164486637, "(0.001, 0.0, 0.0, 0.0, 0.001, 0.0, 0.0, 0.0, 0.001)", -0.394277736005, 0.334828749949, 0.052979733186, "(0.001, 0.0, 0.0, 0.0, 0.001, 0.0, 0.0, 0.0, 0.001)"
1637149567409988362, 16703, 1636513401, 39294004, base_link, 0.00214217493876, -0.014487270593, -0.747332510678, 0.66428882917, "(0.0018103989452900593, 0.0, 0.0, 0.0, 0.001802783122614851, 0.0, 0.0, 0.0, 0.04606396139394975)", -0.00481824923104, -0.0119453132508, -0.294376476297, "(0.001, 0.0, 0.0, 0.0, 0.001, 0.0, 0.0, 0.0, 0.001)", -0.321099188604, 0.181125606421, 0.471129612686, "(0.001, 0.0, 0.0, 0.0, 0.001, 0.0, 0.0, 0.0, 0.001)"
1637149567431418213, 16704, 1636513401, 60616016, base_link, 0.00205196278948, -0.0145501884738, -0.748147904988, 0.663369274029, "(0.0018103989452900593, 0.0, 0.0, 0.0, 0.001802783122614851, 0.0, 0.0, 0.0, 0.04606396139394975)", -0.00424818044559, -0.0160357099462, -0.196709257455, "(0.001, 0.0, 0.0, 0.0, 0.001, 0.0, 0.0, 0.0, 0.001)", -0.113324072904, 0.402161618816, 0.0808438730471, "(0.001, 0.0, 0.0, 0.0, 0.001, 0.0, 0.0, 0.0, 0.001)"
1637149567451375807, 16705, 1636513401, 80616950, base_link, 0.00187075000407, -0.0146603832761, -0.748978145057, 0.662429854161, "(0.0018103989452900593, 0.0, 0.0, 0.0, 0.001802783122614851, 0.0, 0.0, 0.0, 0.04606396139394975)", -0.00881747286579, -0.0411735509165, -0.2969183672, "(0.001, 0.0, 0.0, 0.0, 0.001, 0.0, 0.0, 0.0, 0.001)", -0.685679383774, 0.288346818774, 0.425366591236, "(0.001, 0.0, 0.0, 0.0, 0.001, 0.0, 0.0, 0.0, 0.001)"
1637149567470452375, 16706, 1636513401, 99337100, base_link, 0.0016992571979, -0.0148056654432, -0.74980502337, 0.661490991417, "(0.0018103989452900593, 0.0, 0.0, 0.0, 0.001802783122614851, 0.0, 0.0, 0.0, 0.04606396139394975)", -0.00403937699393, -0.0351354573089, -0.199618575623, "(0.001, 0.0, 0.0, 0.0, 0.001, 0.0, 0.0, 0.0, 0.001)", 0.0105370625361, 0.0318707331584, 0.0969801664632, "(0.001, 0.0, 0.0, 0.0, 0.001, 0.0, 0.0, 0.0, 0.001)"
1637149567490976054, 16707, 1636513401, 120215892, base_link, 0.00149294627931, -0.0150000129695, -0.750671965426, 0.660503119634, "(0.0018103989452900593, 0.0, 0.0, 0.0, 0.001802783122614851, 0.0, 0.0, 0.0, 0.04606396139394975)", -0.00321718591647, -0.064203442915, -0.30741347512, "(0.001, 0.0, 0.0, 0.0, 0.001, 0.0, 0.0, 0.0, 0.001)", -0.349848935174, -0.125511908185, 0.0213752463575, "(0.001, 0.0, 0.0, 0.0, 0.001, 0.0, 0.0, 0.0, 0.001)"
1637149567511794677, 16708, 1636513401, 141015052, base_link, 0.00129200667878, -0.0152390040788, -0.75152808198, 0.659523802048, "(0.0018103989452900593, 0.0, 0.0, 0.0, 0.001802783122614851, 0.0, 0.0, 0.0, 0.04606396139394975)", 0.00346418911141, -0.0490128766908, -0.206749975523, "(0.001, 0.0, 0.0, 0.0, 0.001, 0.0, 0.0, 0.0, 0.001)", -0.376827075883, 0.0241369874032, 0.0833358311701, "(0.001, 0.0, 0.0, 0.0, 0.001, 0.0, 0.0, 0.0, 0.001)"
1637149567529815698, 16709, 1636513401, 159041881, base_link, 0.00105236079802, -0.0155000259598, -0.752417193013, 0.658503613802, "(0.0018103989452900593, 0.0, 0.0, 0.0, 0.001802783122614851, 0.0, 0.0, 0.0, 0.04606396139394975)", 0.00534094606624, -0.0830247010175, -0.318444022774, "(0.001, 0.0, 0.0, 0.0, 0.001, 0.0, 0.0, 0.0, 0.001)", 0.0712842966508, 0.217623977426, -0.0825034265684, "(0.001, 0.0, 0.0, 0.0, 0.001, 0.0, 0.0, 0.0, 0.001)"
1637149567550952504, 16710, 1636513401, 180119991, base_link, 0.000809757622164, -0.0157897313225, -0.753315202669, 0.657469568957, "(0.0018103989452900593, 0.0, 0.0, 0.0, 0.001802783122614851, 0.0, 0.0, 0.0, 0.04606396139394975)", 0.00606956457274, -0.0597588303421, -0.21562287369, "(0.001, 0.0, 0.0, 0.0, 0.001, 0.0, 0.0, 0.0, 0.001)", -0.423113679359, -0.0860296702227, -0.0392963330627, "(0.001, 0.0, 0.0, 0.0, 0.001, 0.0, 0.0, 0.0, 0.001)"
1637149567569838105, 16711, 1636513401, 199054002, base_link, 0.000585839576688, -0.0161018109519, -0.754213683054, 0.656431343531, "(0.0018103989452900593, 0.0, 0.0, 0.0, 0.001802783122614851, 0.0, 0.0, 0.0, 0.04606396139394975)", 0.0146983919273, -0.0929890373563, -0.327316396613, "(0.001, 0.0, 0.0, 0.0, 0.001, 0.0, 0.0, 0.0, 0.001)", 0.459505801449, 0.365520244458, -0.0276348273091, "(0.001, 0.0, 0.0, 0.0, 0.001, 0.0, 0.0, 0.0, 0.001)"
1637149567590274656, 16712, 1636513401, 219317913, base_link, 0.000319056384581, -0.0164063596662, -0.75512587909, 0.655374424505, "(0.0018103989452900593, 0.0, 0.0, 0.0, 0.001802783122614851, 0.0, 0.0, 0.0, 0.04606396139394975)", 0.00762533338275, -0.0652408392345, -0.220744440384, "(0.001, 0.0, 0.0, 0.0, 0.001, 0.0, 0.0, 0.0, 0.001)", 0.0151570439226, 0.309556193343, 0.0503561954227, "(0.001, 0.0, 0.0, 0.0, 0.001, 0.0, 0.0, 0.0, 0.001)"
1637149567610979949, 16713, 1636513401, 240178108, base_link, 4.00000328115e-05, -0.0167227222188, -0.756025639204, 0.65432834405, "(0.0018103989452900593, 0.0, 0.0, 0.0, 0.001802783122614851, 0.0, 0.0, 0.0, 0.04606396139394975)", 0.0105382528597, -0.102064616165, -0.330425581116, "(0.001, 0.0, 0.0, 0.0, 0.001, 0.0, 0.0, 0.0, 0.001)", 0.350412110698, 0.219972573388, -0.291553768646, "(0.001, 0.0, 0.0, 0.0, 0.001, 0.0, 0.0, 0.0, 0.001)"
1637149567630008143, 16714, 1636513401, 259255886, base_link, -0.000188693991724, -0.0169923369622, -0.75694271963, 0.65326024223, "(0.0018103989452900593, 0.0, 0.0, 0.0, 0.001802783122614851, 0.0, 0.0, 0.0, 0.04606396139394975)", 0.00656214809892, -0.063046812491, -0.223432970506, "(0.001, 0.0, 0.0, 0.0, 0.001, 0.0, 0.0, 0.0, 0.001)", 0.819454001364, 0.365506198433, -0.130994948286, "(0.001, 0.0, 0.0, 0.0, 0.001, 0.0, 0.0, 0.0, 0.001)"
1637149567649773284, 16715, 1636513401, 279010057, base_link, -0.000426150003135, -0.0172366497562, -0.757859558835, 0.652189853787, "(0.0018103989452900593, 0.0, 0.0, 0.0, 0.001802783122614851, 0.0, 0.0, 0.0, 0.04606396139394975)", 0.00628905156355, -0.0892325192157, -0.335700970194, "(0.001, 0.0, 0.0, 0.0, 0.001, 0.0, 0.0, 0.0, 0.001)", 1.14942959399, 0.411248494104, 0.165353158244, "(0.001, 0.0, 0.0, 0.0, 0.001, 0.0, 0.0, 0.0, 0.001)"
1637149567675914727, 16716, 1636513401, 303736925, base_link, -0.000625306277773, -0.0174445439726, -0.758758200452, 0.651138456954, "(0.0018103989452900593, 0.0, 0.0, 0.0, 0.001802783122614851, 0.0, 0.0, 0.0, 0.04606396139394975)", 0.00237251373306, -0.052435482405, -0.222523052776, "(0.001, 0.0, 0.0, 0.0, 0.001, 0.0, 0.0, 0.0, 0.001)", 1.74476101087, 0.285325643187, -0.0726379665977, "(0.001, 0.0, 0.0, 0.0, 0.001, 0.0, 0.0, 0.0, 0.001)"
1637149567692208329, 16717, 1636513401, 321357011, base_link, -0.000795373979008, -0.0175394346888, -0.759670476214, 0.650071152397, "(0.0021871198942700065, 0.0, 0.0, 0.0, 0.002177445066100528, 0.0, 0.0, 0.0, 0.046941972241896446)", -0.00537770823068, -0.0625131879858, -0.334128876306, "(0.001, 0.0, 0.0, 0.0, 0.001, 0.0, 0.0, 0.0, 0.001)", 1.80028943097, 0.625030828861, 0.0763477591514, "(0.001, 0.0, 0.0, 0.0, 0.001, 0.0, 0.0, 0.0, 0.001)"
1637149567710785048, 16718, 1636513401, 339665889, base_link, -0.00093369824737, -0.0176360924159, -0.76056861845, 0.64901731339, "(0.0019602753563502523, 0.0, 0.0, 0.0, 0.001944153042554797, 0.0, 0.0, 0.0, 0.046508505410670864)", -0.00542622031603, -0.0336320332234, -0.221829374448, "(0.001, 0.0, 0.0, 0.0, 0.001, 0.0, 0.0, 0.0, 0.001)", 1.40341659375, 0.12905825888, 0.13742427345, "(0.001, 0.0, 0.0, 0.0, 0.001, 0.0, 0.0, 0.0, 0.001)"
1637149567731153197, 16719, 1636513401, 360353946, base_link, -0.00103821087188, -0.0176714652992, -0.761489919702, 0.647934984103, "(0.0019602753563502523, 0.0, 0.0, 0.0, 0.001944153042554797, 0.0, 0.0, 0.0, 0.046508505410670864)", -0.0128685417684, -0.0385379849111, -0.338011280646, "(0.001, 0.0, 0.0, 0.0, 0.001, 0.0, 0.0, 0.0, 0.001)", 2.23768327273, 0.0224379035675, -0.16707433763, "(0.001, 0.0, 0.0, 0.0, 0.001, 0.0, 0.0, 0.0, 0.001)"
1637149567749995371, 16720, 1636513401, 379292011, base_link, -0.00113822727176, -0.0176780876469, -0.762414352773, 0.646846615776, "(0.0019602753563502523, 0.0, 0.0, 0.0, 0.001944153042554797, 0.0, 0.0, 0.0, 0.046508505410670864)", -0.00958624658283, -0.0183719230546, -0.226685108849, "(0.001, 0.0, 0.0, 0.0, 0.001, 0.0, 0.0, 0.0, 0.001)", 0.989941688531, 0.26488105473, 0.178410925214, "(0.001, 0.0, 0.0, 0.0, 0.001, 0.0, 0.0, 0.0, 0.001)"
1637149567770247760, 16721, 1636513401, 399072885, base_link, -0.001192333885, -0.0176207663218, -0.763364023298, 0.645727074598, "(0.0019602753563502523, 0.0, 0.0, 0.0, 0.001944153042554797, 0.0, 0.0, 0.0, 0.046508505410670864)", -0.0207454894338, -0.016462681287, -0.347695269592, "(0.001, 0.0, 0.0, 0.0, 0.001, 0.0, 0.0, 0.0, 0.001)", 2.01080559048, 0.280281585637, -0.245305029318, "(0.001, 0.0, 0.0, 0.0, 0.001, 0.0, 0.0, 0.0, 0.001)"
1637149567791614413, 16722, 1636513401, 420918941, base_link, -0.00121338125292, -0.0175723080562, -0.764330169899, 0.644584465434, "(0.0019602753563502523, 0.0, 0.0, 0.0, 0.001944153042554797, 0.0, 0.0, 0.0, 0.046508505410670864)", -0.012460376406, -0.00309950722858, -0.236720789372, "(0.001, 0.0, 0.0, 0.0, 0.001, 0.0, 0.0, 0.0, 0.001)", 1.05481906876, 0.0705898887151, -0.103172026206, "(0.001, 0.0, 0.0, 0.0, 0.001, 0.0, 0.0, 0.0, 0.001)"
1637149567810223173, 16723, 1636513401, 438654899, base_link, -0.00121338125292, -0.0175723080562, -0.764330169899, 0.644584465434, "(0.0019602753563502523, 0.0, 0.0, 0.0, 0.001944153042554797, 0.0, 0.0, 0.0, 0.046508505410670864)", -0.0165472814097, 0.0133365948297, -0.362169969849, "(0.001, 0.0, 0.0, 0.0, 0.001, 0.0, 0.0, 0.0, 0.001)", 1.86892483448, 0.167234748086, -0.0191397068719, "(0.001, 0.0, 0.0, 0.0, 0.001, 0.0, 0.0, 0.0, 0.001)"
1637149567830582070, 16724, 1636513401, 459780931, base_link, -0.00106650012881, -0.01730384001, -0.766326147507, 0.642217778752, "(0.0019602753563502523, 0.0, 0.0, 0.0, 0.001944153042554797, 0.0, 0.0, 0.0, 0.046508505410670864)", -0.0129518756441, 0.0166650521134, -0.248284879634, "(0.001, 0.0, 0.0, 0.0, 0.001, 0.0, 0.0, 0.0, 0.001)", 1.07313683771, -0.217939176346, -0.251940903441, "(0.001, 0.0, 0.0, 0.0, 0.001, 0.0, 0.0, 0.0, 0.001)"
1637149567852887179, 16725, 1636513401, 481972932, base_link, -0.000945504476694, -0.0171487008597, -0.767351597077, 0.640996532396, "(0.0019602753563502523, 0.0, 0.0, 0.0, 0.001944153042554797, 0.0, 0.0, 0.0, 0.046508505410670864)", -0.0158145514393, 0.0359947915328, -0.378483779373, "(0.001, 0.0, 0.0, 0.0, 0.001, 0.0, 0.0, 0.0, 0.001)", 1.18804226856, -0.0335238411783, 0.0556566484203, "(0.001, 0.0, 0.0, 0.0, 0.001, 0.0, 0.0, 0.0, 0.001)"
1637149567870579883, 16726, 1636513401, 499720096, base_link, -0.000810126683446, -0.0169706258314, -0.768380754594, 0.639767424556, "(0.0019602753563502523, 0.0, 0.0, 0.0, 0.001944153042554797, 0.0, 0.0, 0.0, 0.046508505410670864)", -0.0112256982248, 0.0285507125462, -0.256532422366, "(0.001, 0.0, 0.0, 0.0, 0.001, 0.0, 0.0, 0.0, 0.001)", 1.19254111584, -0.0767150582545, -0.0759012202322, "(0.001, 0.0, 0.0, 0.0, 0.001, 0.0, 0.0, 0.0, 0.001)"
1637149567890036547, 16727, 1636513401, 519376993, base_link, -0.000630204511227, -0.0168382884685, -0.769418836692, 0.638522300807, "(0.0019602753563502523, 0.0, 0.0, 0.0, 0.001944153042554797, 0.0, 0.0, 0.0, 0.046508505410670864)", -0.00871327249943, 0.0464699785196, -0.387337028508, "(0.001, 0.0, 0.0, 0.0, 0.001, 0.0, 0.0, 0.0, 0.001)", 1.00707096017, -0.407726954705, -0.145122058915, "(0.001, 0.0, 0.0, 0.0, 0.001, 0.0, 0.0, 0.0, 0.001)"
1637149567912261964, 16728, 1636513401, 541343927, base_link, -0.000630204511227, -0.0168382884685, -0.769418836692, 0.638522300807, "(0.0019602753563502523, 0.0, 0.0, 0.0, 0.001944153042554797, 0.0, 0.0, 0.0, 0.046508505410670864)", -0.00182004831942, 0.0320755725754, -0.258490544912, "(0.001, 0.0, 0.0, 0.0, 0.001, 0.0, 0.0, 0.0, 0.001)", 0.630042808374, 0.20279211765, -0.0411827027803, "(0.001, 0.0, 0.0, 0.0, 0.001, 0.0, 0.0, 0.0, 0.001)"
1637149567929833826, 16729, 1636513401, 559003114, base_link, -0.000320438751318, -0.016576806902, -0.771480134848, 0.636037348218, "(0.0019602753563502523, 0.0, 0.0, 0.0, 0.001944153042554797, 0.0, 0.0, 0.0, 0.046508505410670864)", -0.00628201189384, 0.0431957390665, -0.389511958703, "(0.001, 0.0, 0.0, 0.0, 0.001, 0.0, 0.0, 0.0, 0.001)", 0.845009696313, -0.0950265254128, -0.192995728592, "(0.001, 0.0, 0.0, 0.0, 0.001, 0.0, 0.0, 0.0, 0.001)"
1637149567950373365, 16730, 1636513401, 579612970, base_link, -0.000143642605476, -0.0164755991902, -0.772503595377, 0.634796604534, "(0.0019602753563502523, 0.0, 0.0, 0.0, 0.001944153042554797, 0.0, 0.0, 0.0, 0.046508505410670864)", 0.000471121772214, 0.0284718302025, -0.258080051054, "(0.001, 0.0, 0.0, 0.0, 0.001, 0.0, 0.0, 0.0, 0.001)", 0.134675176723, 0.0267080987443, 0.0439202147013, "(0.001, 0.0, 0.0, 0.0, 0.001, 0.0, 0.0, 0.0, 0.001)"
1637149567970844740, 16731, 1636513401, 599123001, base_link, 1.35749064997e-05, -0.0163697903872, -0.773530625788, 0.633547473159, "(0.0019602753563502523, 0.0, 0.0, 0.0, 0.001944153042554797, 0.0, 0.0, 0.0, 0.046508505410670864)", -7.02560281718e-05, 0.040964142615, -0.389450419715, "(0.001, 0.0, 0.0, 0.0, 0.001, 0.0, 0.0, 0.0, 0.001)", 0.902363964826, 0.0252684579418, -0.301057069421, "(0.001, 0.0, 0.0, 0.0, 0.001, 0.0, 0.0, 0.0, 0.001)"
1637149567990624321, 16732, 1636513401, 619813919, base_link, 0.000194122701784, -0.0162892865702, -0.774544882544, 0.632309138305, "(0.0019602753563502523, 0.0, 0.0, 0.0, 0.001944153042554797, 0.0, 0.0, 0.0, 0.046508505410670864)", 0.00411617992608, 0.0276453135135, -0.257303017492, "(0.001, 0.0, 0.0, 0.0, 0.001, 0.0, 0.0, 0.0, 0.001)", 0.158822327785, -0.121596391924, 0.116982058067, "(0.001, 0.0, 0.0, 0.0, 0.001, 0.0, 0.0, 0.0, 0.001)"
1637149568010190375, 16733, 1636513401, 639471054, base_link, 0.000369284757478, -0.0161639870066, -0.775532971268, 0.631099991784, "(0.0019602753563502523, 0.0, 0.0, 0.0, 0.001944153042554797, 0.0, 0.0, 0.0, 0.046508505410670864)", 0.00363540583488, 0.0437723399742, -0.38112853453, "(0.001, 0.0, 0.0, 0.0, 0.001, 0.0, 0.0, 0.0, 0.001)", 0.793453147963, 0.483572499835, 0.294913436481, "(0.001, 0.0, 0.0, 0.0, 0.001, 0.0, 0.0, 0.0, 0.001)"
1637149568030782546, 16734, 1636513401, 660068988, base_link, 0.000492901084263, -0.0160525730484, -0.776529304667, 0.629876425135, "(0.0019602753563502523, 0.0, 0.0, 0.0, 0.001944153042554797, 0.0, 0.0, 0.0, 0.046508505410670864)", -0.00290507257581, 0.0255703694368, -0.252591857691, "(0.001, 0.0, 0.0, 0.0, 0.001, 0.0, 0.0, 0.0, 0.001)", 0.0686665447764, -0.188859918622, 0.204581779762, "(0.001, 0.0, 0.0, 0.0, 0.001, 0.0, 0.0, 0.0, 0.001)"
1637149568050809475, 16735, 1636513401, 679950952, base_link, 0.00064422351753, -0.0159660165218, -0.777505707336, 0.628672845248, "(0.0019602753563502523, 0.0, 0.0, 0.0, 0.001944153042554797, 0.0, 0.0, 0.0, 0.046508505410670864)", 0.00089406361245, 0.0384623527494, -0.375691296163, "(0.001, 0.0, 0.0, 0.0, 0.001, 0.0, 0.0, 0.0, 0.001)", 0.165946329625, 0.246715409212, 0.374059155116, "(0.001, 0.0, 0.0, 0.0, 0.001, 0.0, 0.0, 0.0, 0.001)"
1637149568070830296, 16736, 1636513401, 699989080, base_link, 0.000738474534353, -0.0158759111177, -0.778482976661, 0.627464473217, "(0.0019602753563502523, 0.0, 0.0, 0.0, 0.001944153042554797, 0.0, 0.0, 0.0, 0.046508505410670864)", -0.00310014037873, 0.019335770658, -0.249929318627, "(0.001, 0.0, 0.0, 0.0, 0.001, 0.0, 0.0, 0.0, 0.001)", 0.306461090228, 0.362781404431, 0.209528464379, "(0.001, 0.0, 0.0, 0.0, 0.001, 0.0, 0.0, 0.0, 0.001)"
1637149568091303034, 16737, 1636513401, 720396995, base_link, 0.000772596132445, -0.0158321128384, -0.779431028156, 0.626287489613, "(0.0019602753563502523, 0.0, 0.0, 0.0, 0.001944153042554797, 0.0, 0.0, 0.0, 0.046508505410670864)", -0.00552622681887, 0.0182629044418, -0.36778599333, "(0.001, 0.0, 0.0, 0.0, 0.001, 0.0, 0.0, 0.0, 0.001)", -0.400912882072, -0.0101952012349, 0.312650917397, "(0.001, 0.0, 0.0, 0.0, 0.001, 0.0, 0.0, 0.0, 0.001)"
1637149568110303319, 16738, 1636513401, 739451885, base_link, 0.000779994681902, -0.0158026296638, -0.780377267112, 0.625108782116, "(0.0019602753563502523, 0.0, 0.0, 0.0, 0.001944153042554797, 0.0, 0.0, 0.0, 0.046508505410670864)", -0.00504203779633, 0.00377342986998, -0.243453079633, "(0.001, 0.0, 0.0, 0.0, 0.001, 0.0, 0.0, 0.0, 0.001)", 0.338949682483, 0.0854802326462, -0.116710847416, "(0.001, 0.0, 0.0, 0.0, 0.001, 0.0, 0.0, 0.0, 0.001)"
1637149568130150338, 16739, 1636513401, 759346961, base_link, 0.000756629026289, -0.0157918083841, -0.781338115202, 0.6239076823, "(0.0019602753563502523, 0.0, 0.0, 0.0, 0.001944153042554797, 0.0, 0.0, 0.0, 0.046508505410670864)", -0.00791876919455, -0.00134981159739, -0.366916288741, "(0.001, 0.0, 0.0, 0.0, 0.001, 0.0, 0.0, 0.0, 0.001)", -0.320823339969, 0.0278018736116, 0.396677164011, "(0.001, 0.0, 0.0, 0.0, 0.001, 0.0, 0.0, 0.0, 0.001)"
1637149568151518944, 16740, 1636513401, 780685901, base_link, 0.000702238305507, -0.0158078265927, -0.782297387, 0.622704117356, "(0.0019602753563502523, 0.0, 0.0, 0.0, 0.001944153042554797, 0.0, 0.0, 0.0, 0.046508505410670864)", -0.00563361845996, -0.00881812530167, -0.245716164323, "(0.001, 0.0, 0.0, 0.0, 0.001, 0.0, 0.0, 0.0, 0.001)", -0.152500377064, 0.017547911491, 0.149845847922, "(0.001, 0.0, 0.0, 0.0, 0.001, 0.0, 0.0, 0.0, 0.001)"
1637149568171158487, 16741, 1636513401, 800369024, base_link, 0.000627873632431, -0.0158221743028, -0.783288740918, 0.621456364458, "(0.0019602753563502523, 0.0, 0.0, 0.0, 0.001944153042554797, 0.0, 0.0, 0.0, 0.046508505410670864)", -0.0112879342362, -0.0175018366225, -0.376899692595, "(0.001, 0.0, 0.0, 0.0, 0.001, 0.0, 0.0, 0.0, 0.001)", 0.0371980794406, 0.0253688286285, 0.134504471905, "(0.001, 0.0, 0.0, 0.0, 0.001, 0.0, 0.0, 0.0, 0.001)"
1637149568190425513, 16742, 1636513401, 819637060, base_link, 0.000550796208676, -0.0158601488734, -0.784272294359, 0.620213770085, "(0.0019602753563502523, 0.0, 0.0, 0.0, 0.001944153042554797, 0.0, 0.0, 0.0, 0.046508505410670864)", -0.00577750993567, -0.0153098660476, -0.252856135624, "(0.001, 0.0, 0.0, 0.0, 0.001, 0.0, 0.0, 0.0, 0.001)", -0.290685342958, 0.158557098124, 0.029209913612, "(0.001, 0.0, 0.0, 0.0, 0.001, 0.0, 0.0, 0.0, 0.001)"
1637149568210998394, 16743, 1636513401, 840281963, base_link, 0.000471228985563, -0.0158837304081, -0.785268986959, 0.618950808362, "(0.0019602753563502523, 0.0, 0.0, 0.0, 0.001944153042554797, 0.0, 0.0, 0.0, 0.046508505410670864)", -0.010800125509, -0.0244683791641, -0.383753497702, "(0.001, 0.0, 0.0, 0.0, 0.001, 0.0, 0.0, 0.0, 0.001)", 0.562362716681, -0.0974943430895, -0.30725127701, "(0.001, 0.0, 0.0, 0.0, 0.001, 0.0, 0.0, 0.0, 0.001)"
1637149568230488624, 16744, 1636513401, 859540939, base_link, 0.00036856816934, -0.0159368663905, -0.786277327773, 0.617668069659, "(0.0019602753563502523, 0.0, 0.0, 0.0, 0.001944153042554797, 0.0, 0.0, 0.0, 0.046508505410670864)", -0.0056096091301, -0.0189852144514, -0.258878915012, "(0.001, 0.0, 0.0, 0.0, 0.001, 0.0, 0.0, 0.0, 0.001)", -0.199660711921, 0.0912000046751, -0.182561172652, "(0.001, 0.0, 0.0, 0.0, 0.001, 0.0, 0.0, 0.0, 0.001)"
1637149568250436744, 16745, 1636513401, 879574060, base_link, 0.000239802447715, -0.01597850933, -0.787282835752, 0.616384917292, "(0.0019602753563502523, 0.0, 0.0, 0.0, 0.001944153042554797, 0.0, 0.0, 0.0, 0.046508505410670864)", -0.0121473153615, -0.0329249155639, -0.39085938301, "(0.001, 0.0, 0.0, 0.0, 0.001, 0.0, 0.0, 0.0, 0.001)", 0.446500929598, 0.534922991762, -0.344850429179, "(0.001, 0.0, 0.0, 0.0, 0.001, 0.0, 0.0, 0.0, 0.001)"
1637149568272114054, 16746, 1636513401, 901139020, base_link, 8.68238744427e-05, -0.0160059559139, -0.788303703957, 0.615078102492, "(0.0019602753563502523, 0.0, 0.0, 0.0, 0.001944153042554797, 0.0, 0.0, 0.0, 0.046508505410670864)", -0.0121951899499, -0.0244401197122, -0.263410710926, "(0.001, 0.0, 0.0, 0.0, 0.001, 0.0, 0.0, 0.0, 0.001)", 0.402347046619, 0.244900901409, -0.266329217665, "(0.001, 0.0, 0.0, 0.0, 0.001, 0.0, 0.0, 0.0, 0.001)"
1637149568289942228, 16747, 1636513401, 919137954, base_link, -5.14658370141e-05, -0.0160501021226, -0.789300970132, 0.613796684678, "(0.0019602753563502523, 0.0, 0.0, 0.0, 0.001944153042554797, 0.0, 0.0, 0.0, 0.046508505410670864)", -0.0166422267064, -0.0370107437057, -0.392107813408, "(0.001, 0.0, 0.0, 0.0, 0.001, 0.0, 0.0, 0.0, 0.001)", 0.686929103175, 0.326694488968, -0.198729978769, "(0.001, 0.0, 0.0, 0.0, 0.001, 0.0, 0.0, 0.0, 0.001)"
1637149568312623855, 16748, 1636513401, 940001964, base_link, -0.000203007698075, -0.0160816716954, -0.790280003186, 0.612534778758, "(0.0019602753563502523, 0.0, 0.0, 0.0, 0.001944153042554797, 0.0, 0.0, 0.0, 0.046508505410670864)", -0.0135094810714, -0.0257362499274, -0.258394260108, "(0.001, 0.0, 0.0, 0.0, 0.001, 0.0, 0.0, 0.0, 0.001)", 1.21424482638, 0.230567421499, -0.173373844677, "(0.001, 0.0, 0.0, 0.0, 0.001, 0.0, 0.0, 0.0, 0.001)"
1637149568331155250, 16749, 1636513401, 960227966, base_link, -0.00035284974353, -0.0160824699441, -0.791251727891, 0.611278932049, "(0.0019602753563502523, 0.0, 0.0, 0.0, 0.001944153042554797, 0.0, 0.0, 0.0, 0.046508505410670864)", -0.0228776760403, -0.0363283221249, -0.382360931746, "(0.001, 0.0, 0.0, 0.0, 0.001, 0.0, 0.0, 0.0, 0.001)", 0.837165555533, -0.0586007426321, -0.0106635655921, "(0.001, 0.0, 0.0, 0.0, 0.001, 0.0, 0.0, 0.0, 0.001)"
1637149568350101546, 16750, 1636513401, 979316949, base_link, -0.000491261022364, -0.016084644123, -0.792210838845, 0.610035269229, "(0.0019602753563502523, 0.0, 0.0, 0.0, 0.001944153042554797, 0.0, 0.0, 0.0, 0.046508505410670864)", -0.0157330579308, -0.0215939251408, -0.253163262189, "(0.001, 0.0, 0.0, 0.0, 0.001, 0.0, 0.0, 0.0, 0.001)", 1.08238215467, 0.0101203982832, -0.159931270562, "(0.001, 0.0, 0.0, 0.0, 0.001, 0.0, 0.0, 0.0, 0.001)"
1637149568370337847, 16751, 1636513401, 999294996, base_link, -0.000643421366453, -0.0161024500107, -0.793170121287, 0.608786872238, "(0.0019602753563502523, 0.0, 0.0, 0.0, 0.001944153042554797, 0.0, 0.0, 0.0, 0.046508505410670864)", -0.0233548608085, -0.0348720151641, -0.378202393692, "(0.001, 0.0, 0.0, 0.0, 0.001, 0.0, 0.0, 0.0, 0.001)", 0.974363582876, 0.198598095435, 0.346158330032, "(0.001, 0.0, 0.0, 0.0, 0.001, 0.0, 0.0, 0.0, 0.001)"
1637149568391875885, 16752, 1636513402, 20993947, base_link, -0.000771847765106, -0.0160985185243, -0.794108804016, 0.607561889306, "(0.0019602753563502523, 0.0, 0.0, 0.0, 0.001944153042554797, 0.0, 0.0, 0.0, 0.046508505410670864)", -0.0157556698966, -0.0204264202601, -0.248596757696, "(0.001, 0.0, 0.0, 0.0, 0.001, 0.0, 0.0, 0.0, 0.001)", 0.679552664314, -0.18245499007, 0.0428239447939, "(0.001, 0.0, 0.0, 0.0, 0.001, 0.0, 0.0, 0.0, 0.001)"
1637149568409904184, 16753, 1636513402, 39084911, base_link, -0.000922124173876, -0.0161430144311, -0.795050048567, 0.606328271686, "(0.0019602753563502523, 0.0, 0.0, 0.0, 0.001944153042554797, 0.0, 0.0, 0.0, 0.046508505410670864)", -0.0196744377039, -0.0356570618382, -0.372899383625, "(0.001, 0.0, 0.0, 0.0, 0.001, 0.0, 0.0, 0.0, 0.001)", 1.25021205711, -0.181748553761, 0.142406787826, "(0.001, 0.0, 0.0, 0.0, 0.001, 0.0, 0.0, 0.0, 0.001)"
1637149568431396517, 16754, 1636513402, 60467004, base_link, -0.00104420847926, -0.0161381533296, -0.795986621926, 0.605098146875, "(0.0019602753563502523, 0.0, 0.0, 0.0, 0.001944153042554797, 0.0, 0.0, 0.0, 0.046508505410670864)", -0.0143379809689, -0.0211436181919, -0.247026286258, "(0.001, 0.0, 0.0, 0.0, 0.001, 0.0, 0.0, 0.0, 0.001)", 0.819159414307, -0.0898729062669, 0.137427362908, "(0.001, 0.0, 0.0, 0.0, 0.001, 0.0, 0.0, 0.0, 0.001)"
1637149568450881683, 16755, 1636513402, 79993009, base_link, -0.00108111311448, -0.0160931802853, -0.796926459916, 0.603860959352, "(0.0019602753563502523, 0.0, 0.0, 0.0, 0.001944153042554797, 0.0, 0.0, 0.0, 0.046508505410670864)", -0.020461063765, -0.0170741431552, -0.37283107145, "(0.001, 0.0, 0.0, 0.0, 0.001, 0.0, 0.0, 0.0, 0.001)", 1.783449329, -0.389955783239, 0.19755522022, "(0.001, 0.0, 0.0, 0.0, 0.001, 0.0, 0.0, 0.0, 0.001)"
1637149568471780396, 16756, 1636513402, 100436925, base_link, -0.00113456778752, -0.016063795856, -0.797880197765, 0.602600910415, "(0.0019602753563502523, 0.0, 0.0, 0.0, 0.001944153042554797, 0.0, 0.0, 0.0, 0.046508505410670864)", -0.0113418806753, -0.00691673756415, -0.25078233943, "(0.001, 0.0, 0.0, 0.0, 0.001, 0.0, 0.0, 0.0, 0.001)", 0.45851150494, -0.11447184068, 0.273605061557, "(0.001, 0.0, 0.0, 0.0, 0.001, 0.0, 0.0, 0.0, 0.001)"
1637149568490212186, 16757, 1636513402, 119311094, base_link, -0.00114141434521, -0.0159963208317, -0.798840645742, 0.601328893039, "(0.0019602753563502523, 0.0, 0.0, 0.0, 0.001944153042554797, 0.0, 0.0, 0.0, 0.046508505410670864)", -0.0183537630499, -0.00343037195874, -0.380589180771, "(0.001, 0.0, 0.0, 0.0, 0.001, 0.0, 0.0, 0.0, 0.001)", 1.36117781469, -0.0366893010799, 0.301362559179, "(0.001, 0.0, 0.0, 0.0, 0.001, 0.0, 0.0, 0.0, 0.001)"
1637149568511896463, 16758, 1636513402, 141064882, base_link, -0.00116299926359, -0.0159029431939, -0.799825677904, 0.600020523645, "(0.0019602753563502523, 0.0, 0.0, 0.0, 0.001944153042554797, 0.0, 0.0, 0.0, 0.046508505410670864)", -0.0151605759062, 0.00153972429595, -0.259132935162, "(0.001, 0.0, 0.0, 0.0, 0.001, 0.0, 0.0, 0.0, 0.001)", 0.267162399408, -0.0358118196058, 0.0761526178867, "(0.001, 0.0, 0.0, 0.0, 0.001, 0.0, 0.0, 0.0, 0.001)"
1637149568530132550, 16759, 1636513402, 158962965, base_link, -0.00122498407053, -0.0158208763539, -0.800824654481, 0.598688626968, "(0.0019602753563502523, 0.0, 0.0, 0.0, 0.001944153042554797, 0.0, 0.0, 0.0, 0.046508505410670864)", -0.0253533883581, -0.00123163770694, -0.394901734109, "(0.001, 0.0, 0.0, 0.0, 0.001, 0.0, 0.0, 0.0, 0.001)", 0.274888154975, 0.0188866302673, 0.649978983838, "(0.001, 0.0, 0.0, 0.0, 0.001, 0.0, 0.0, 0.0, 0.001)"
1637149568551594686, 16760, 1636513402, 180856943, base_link, -0.00126941154757, -0.0157143180887, -0.801846424736, 0.597322157583, "(0.0019602753563502523, 0.0, 0.0, 0.0, 0.001944153042554797, 0.0, 0.0, 0.0, 0.046508505410670864)", -0.0205765874527, 4.23345306199e-05, -0.270180790794, "(0.001, 0.0, 0.0, 0.0, 0.001, 0.0, 0.0, 0.0, 0.001)", 0.577807525027, -0.0118031542787, 0.0304952591722, "(0.001, 0.0, 0.0, 0.0, 0.001, 0.0, 0.0, 0.0, 0.001)"
1637149568570872125, 16761, 1636513402, 199255943, base_link, -0.00131851314752, -0.0156179064667, -0.802878670025, 0.595936392361, "(0.0019602753563502523, 0.0, 0.0, 0.0, 0.001944153042554797, 0.0, 0.0, 0.0, 0.046508505410670864)", -0.0297244381821, -0.000320746525005, -0.410730865411, "(0.001, 0.0, 0.0, 0.0, 0.001, 0.0, 0.0, 0.0, 0.001)", 0.504427297557, -0.395320706231, 0.453615185838, "(0.001, 0.0, 0.0, 0.0, 0.001, 0.0, 0.0, 0.0, 0.001)"
1637149568590393175, 16762, 1636513402, 219671964, base_link, -0.0013719682251, -0.0155038870507, -0.803909532529, 0.594547904461, "(0.0019602753563502523, 0.0, 0.0, 0.0, 0.001944153042554797, 0.0, 0.0, 0.0, 0.046508505410670864)", -0.0216036571348, 0.000560656142447, -0.276414821398, "(0.001, 0.0, 0.0, 0.0, 0.001, 0.0, 0.0, 0.0, 0.001)", 0.650391616433, -0.041000903907, 0.0983913078753, "(0.001, 0.0, 0.0, 0.0, 0.001, 0.0, 0.0, 0.0, 0.001)"
1637149568610162112, 16763, 1636513402, 239357948, base_link, -0.00142369444204, -0.0153745735816, -0.804965303402, 0.593120945424, "(0.0019602753563502523, 0.0, 0.0, 0.0, 0.001944153042554797, 0.0, 0.0, 0.0, 0.046508505410670864)", -0.0351228394289, 0.00100572831255, -0.420888636872, "(0.001, 0.0, 0.0, 0.0, 0.001, 0.0, 0.0, 0.0, 0.001)", 1.05145360747, -0.307601836179, 0.296082296404, "(0.001, 0.0, 0.0, 0.0, 0.001, 0.0, 0.0, 0.0, 0.001)"
1637149568631437892, 16764, 1636513402, 260696887, base_link, -0.0014232050184, -0.0152737598862, -0.806016560091, 0.59169417067, "(0.0019602753563502523, 0.0, 0.0, 0.0, 0.001944153042554797, 0.0, 0.0, 0.0, 0.046508505410670864)", -0.0193149026057, 0.00495417629556, -0.282949160143, "(0.001, 0.0, 0.0, 0.0, 0.001, 0.0, 0.0, 0.0, 0.001)", 0.606445398815, -0.485268309775, -0.0958150182772, "(0.001, 0.0, 0.0, 0.0, 0.001, 0.0, 0.0, 0.0, 0.001)"
1637149568652728892, 16765, 1636513402, 281899929, base_link, -0.00142447693292, -0.0151402793291, -0.807067138294, 0.590263819909, "(0.0019602753563502523, 0.0, 0.0, 0.0, 0.001944153042554797, 0.0, 0.0, 0.0, 0.046508505410670864)", -0.0283987659357, 0.0108171441543, -0.426596766339, "(0.001, 0.0, 0.0, 0.0, 0.001, 0.0, 0.0, 0.0, 0.001)", 1.54235090624, -0.0140176524385, 0.0382695399826, "(0.001, 0.0, 0.0, 0.0, 0.001, 0.0, 0.0, 0.0, 0.001)"
1637149568674969881, 16766, 1636513402, 303986072, base_link, -0.00143425991519, -0.0150377669849, -0.808120477342, 0.588823490159, "(0.0019602753563502523, 0.0, 0.0, 0.0, 0.001944153042554797, 0.0, 0.0, 0.0, 0.046508505410670864)", -0.0185937405748, 0.00724191727216, -0.284295512226, "(0.001, 0.0, 0.0, 0.0, 0.001, 0.0, 0.0, 0.0, 0.001)", -0.227335956021, -0.166559984937, -0.301995500315, "(0.001, 0.0, 0.0, 0.0, 0.001, 0.0, 0.0, 0.0, 0.001)"
1637149568692551232, 16767, 1636513402, 321754932, base_link, -0.00145147996773, -0.0150094121752, -0.809187391406, 0.587357111426, "(0.0023382980846629042, 0.0, 0.0, 0.0, 0.0023227774865269973, 0.0, 0.0, 0.0, 0.04752298420113732)", -0.0193147204422, 0.000458299020145, -0.432460528322, "(0.001, 0.0, 0.0, 0.0, 0.001, 0.0, 0.0, 0.0, 0.001)", 0.635179895993, -0.296935707361, -0.507995443319, "(0.001, 0.0, 0.0, 0.0, 0.001, 0.0, 0.0, 0.0, 0.001)"
1637149568710749570, 16768, 1636513402, 340003013, base_link, -0.00150258527376, -0.0149954810513, -0.810259059951, 0.58587808762, "(0.0020947667880611004, 0.0, 0.0, 0.0, 0.0020723336036332918, 0.0, 0.0, 0.0, 0.04714750349219288)", -0.00972963145634, -0.00491360341788, -0.2906096271, "(0.001, 0.0, 0.0, 0.0, 0.001, 0.0, 0.0, 0.0, 0.001)", -0.206183105674, -0.0349718862949, -0.471394314609, "(0.001, 0.0, 0.0, 0.0, 0.001, 0.0, 0.0, 0.0, 0.001)"
1637149568731152959, 16769, 1636513402, 360357999, base_link, -0.00157904225573, -0.0150341118965, -0.811324131542, 0.584401091445, "(0.0020947667880611004, 0.0, 0.0, 0.0, 0.0020723336036332918, 0.0, 0.0, 0.0, 0.04714750349219288)", -0.0114239981186, -0.0173739641417, -0.437129961891, "(0.001, 0.0, 0.0, 0.0, 0.001, 0.0, 0.0, 0.0, 0.001)", -0.0120908854777, -0.275845643149, -0.726323415097, "(0.001, 0.0, 0.0, 0.0, 0.001, 0.0, 0.0, 0.0, 0.001)"
1637149568750144284, 16770, 1636513402, 378956079, base_link, -0.00157904225573, -0.0150341118965, -0.811324131542, 0.584401091445, "(0.0020947667880611004, 0.0, 0.0, 0.0, 0.0020723336036332918, 0.0, 0.0, 0.0, 0.04714750349219288)", -0.00549659349761, -0.0190143184522, -0.294780560712, "(0.001, 0.0, 0.0, 0.0, 0.001, 0.0, 0.0, 0.0, 0.001)", 0.335469223121, -0.28150827064, -0.468416580535, "(0.001, 0.0, 0.0, 0.0, 0.001, 0.0, 0.0, 0.0, 0.001)"
1637149568770797204, 16771, 1636513402, 399378061, base_link, -0.00169805835956, -0.0151345375215, -0.813486724958, 0.581384047501, "(0.0020947667880611004, 0.0, 0.0, 0.0, 0.0020723336036332918, 0.0, 0.0, 0.0, 0.04714750349219288)", -0.0022778303884, -0.0219983666319, -0.444095819753, "(0.001, 0.0, 0.0, 0.0, 0.001, 0.0, 0.0, 0.0, 0.001)", 1.15742620734, -0.315488140081, -0.364387710751, "(0.001, 0.0, 0.0, 0.0, 0.001, 0.0, 0.0, 0.0, 0.001)"
1637149568791631601, 16772, 1636513402, 420825958, base_link, -0.00172537306888, -0.015196996237, -0.814564063971, 0.579871934206, "(0.0020947667880611004, 0.0, 0.0, 0.0, 0.0020723336036332918, 0.0, 0.0, 0.0, 0.04714750349219288)", 0.000518422231053, -0.0129320867412, -0.297323534544, "(0.001, 0.0, 0.0, 0.0, 0.001, 0.0, 0.0, 0.0, 0.001)", 0.88563946507, -0.200547760096, -0.490605286875, "(0.001, 0.0, 0.0, 0.0, 0.001, 0.0, 0.0, 0.0, 0.001)"
1637149568809881274, 16773, 1636513402, 439171075, base_link, -0.00171679735839, -0.0152137788497, -0.81565731097, 0.578332728281, "(0.0020947667880611004, 0.0, 0.0, 0.0, 0.0020723336036332918, 0.0, 0.0, 0.0, 0.04714750349219288)", 0.00131580426828, -0.0125207537266, -0.448895757756, "(0.001, 0.0, 0.0, 0.0, 0.001, 0.0, 0.0, 0.0, 0.001)", 1.22084534775, -0.272896392264, 0.0240480276834, "(0.001, 0.0, 0.0, 0.0, 0.001, 0.0, 0.0, 0.0, 0.001)"
1637149568830908287, 16774, 1636513402, 460099935, base_link, -0.00166587984163, -0.0152131526038, -0.816743790934, 0.576797507626, "(0.0020947667880611004, 0.0, 0.0, 0.0, 0.0020723336036332918, 0.0, 0.0, 0.0, 0.04714750349219288)", 0.000724711422674, -0.000436073100514, -0.301567130605, "(0.001, 0.0, 0.0, 0.0, 0.001, 0.0, 0.0, 0.0, 0.001)", 1.13605964802, -0.223594159553, -0.3824459825, "(0.001, 0.0, 0.0, 0.0, 0.001, 0.0, 0.0, 0.0, 0.001)"
1637149568851163267, 16775, 1636513402, 480361938, base_link, -0.00168216377367, -0.0152541896943, -0.81783847704, 0.57524317075, "(0.0020947667880611004, 0.0, 0.0, 0.0, 0.0020723336036332918, 0.0, 0.0, 0.0, 0.04714750349219288)", 0.00171293031848, -0.00658043678154, -0.454016561058, "(0.001, 0.0, 0.0, 0.0, 0.001, 0.0, 0.0, 0.0, 0.001)", 0.293524437791, 0.0115997662974, 0.246378862016, "(0.001, 0.0, 0.0, 0.0, 0.001, 0.0, 0.0, 0.0, 0.001)"
1637149568871566036, 16776, 1636513402, 500106096, base_link, -0.0017273290501, -0.0152821092456, -0.818927634284, 0.573690686064, "(0.0020947667880611004, 0.0, 0.0, 0.0, 0.0020723336036332918, 0.0, 0.0, 0.0, 0.04714750349219288)", -0.00193608800434, -0.0103481558805, -0.30338502226, "(0.001, 0.0, 0.0, 0.0, 0.001, 0.0, 0.0, 0.0, 0.001)", 0.319956476368, -0.106701212587, 0.17349570969, "(0.001, 0.0, 0.0, 0.0, 0.001, 0.0, 0.0, 0.0, 0.001)"
1637149568890355144, 16777, 1636513402, 519643068, base_link, -0.00176642485745, -0.0153462344257, -0.820027992086, 0.572114905441, "(0.0020947667880611004, 0.0, 0.0, 0.0, 0.0020723336036332918, 0.0, 0.0, 0.0, 0.04714750349219288)", -0.00182817928368, -0.0190070145392, -0.459237668161, "(0.001, 0.0, 0.0, 0.0, 0.001, 0.0, 0.0, 0.0, 0.001)", 0.976352025503, -0.650815879127, -0.116286208129, "(0.001, 0.0, 0.0, 0.0, 0.001, 0.0, 0.0, 0.0, 0.001)"
1637149568910717796, 16778, 1636513402, 539963960, base_link, -0.00181629412709, -0.0154241555338, -0.821122718185, 0.570540338786, "(0.0020947667880611004, 0.0, 0.0, 0.0, 0.0020723336036332918, 0.0, 0.0, 0.0, 0.04714750349219288)", 0.00262518356994, -0.0154879415012, -0.305922133539, "(0.001, 0.0, 0.0, 0.0, 0.001, 0.0, 0.0, 0.0, 0.001)", -0.00550880394514, -0.226868176584, 0.074416451969, "(0.001, 0.0, 0.0, 0.0, 0.001, 0.0, 0.0, 0.0, 0.001)"
1637149568930224887, 16779, 1636513402, 559442996, base_link, -0.00188132766464, -0.0155247572049, -0.822234179425, 0.568934439725, "(0.0020947667880611004, 0.0, 0.0, 0.0, 0.0020723336036332918, 0.0, 0.0, 0.0, 0.04714750349219288)", 0.00431467750394, -0.0290958897273, -0.465050538201, "(0.001, 0.0, 0.0, 0.0, 0.001, 0.0, 0.0, 0.0, 0.001)", 0.864188841657, -0.380076756033, -0.347335553746, "(0.001, 0.0, 0.0, 0.0, 0.001, 0.0, 0.0, 0.0, 0.001)"
1637149568950192237, 16780, 1636513402, 579499006, base_link, -0.00192307486847, -0.0156773109489, -0.823353799742, 0.567308596934, "(0.0020947667880611004, 0.0, 0.0, 0.0, 0.0020723336036332918, 0.0, 0.0, 0.0, 0.04714750349219288)", 0.00939464970096, -0.0217876246279, -0.313507588721, "(0.001, 0.0, 0.0, 0.0, 0.001, 0.0, 0.0, 0.0, 0.001)", 0.0886987766846, -0.459641773129, -0.296810932503, "(0.001, 0.0, 0.0, 0.0, 0.001, 0.0, 0.0, 0.0, 0.001)"
1637149568970457968, 16781, 1636513402, 599361896, base_link, -0.00193864938626, -0.0158743070623, -0.824476957897, 0.565669509441, "(0.0020947667880611004, 0.0, 0.0, 0.0, 0.0020723336036332918, 0.0, 0.0, 0.0, 0.04714750349219288)", 0.0236367529869, -0.0350202140834, -0.474839046697, "(0.001, 0.0, 0.0, 0.0, 0.001, 0.0, 0.0, 0.0, 0.001)", 0.99634747763, -0.580102012953, -0.416299595761, "(0.001, 0.0, 0.0, 0.0, 0.001, 0.0, 0.0, 0.0, 0.001)"
1637149568990232520, 16782, 1636513402, 619445085, base_link, -0.00198152062772, -0.0160444328894, -0.825606581188, 0.564014559075, "(0.0020947667880611004, 0.0, 0.0, 0.0, 0.0020723336036332918, 0.0, 0.0, 0.0, 0.04714750349219288)", 0.0162080847565, -0.0240941866275, -0.319071595369, "(0.001, 0.0, 0.0, 0.0, 0.001, 0.0, 0.0, 0.0, 0.001)", 0.473837899458, -0.191427818912, -0.33310994486, "(0.001, 0.0, 0.0, 0.0, 0.001, 0.0, 0.0, 0.0, 0.001)"
1637149569009977999, 16783, 1636513402, 639231920, base_link, -0.00199194005022, -0.0162576295686, -0.826735081836, 0.562352937325, "(0.0020947667880611004, 0.0, 0.0, 0.0, 0.0020723336036332918, 0.0, 0.0, 0.0, 0.04714750349219288)", 0.0315056122006, -0.0368836684832, -0.480088172621, "(0.001, 0.0, 0.0, 0.0, 0.001, 0.0, 0.0, 0.0, 0.001)", 0.601765980697, -0.0506609444156, -0.246774656288, "(0.001, 0.0, 0.0, 0.0, 0.001, 0.0, 0.0, 0.0, 0.001)"
1637149569031651868, 16784, 1636513402, 660809993, base_link, -0.00200586455914, -0.0163998284226, -0.827884068331, 0.560655858383, "(0.0020947667880611004, 0.0, 0.0, 0.0, 0.0020723336036332918, 0.0, 0.0, 0.0, 0.04714750349219288)", 0.0160438224448, -0.021504369488, -0.326003427641, "(0.001, 0.0, 0.0, 0.0, 0.001, 0.0, 0.0, 0.0, 0.001)", 1.30371362659, 0.0429602760532, 0.0690106753981, "(0.001, 0.0, 0.0, 0.0, 0.001, 0.0, 0.0, 0.0, 0.001)"
1637149569050609475, 16785, 1636513402, 679042100, base_link, -0.00200367302904, -0.0164718518185, -0.829047330492, 0.558932184792, "(0.0020947667880611004, 0.0, 0.0, 0.0, 0.0020723336036332918, 0.0, 0.0, 0.0, 0.04714750349219288)", 0.0161204524205, -0.0222630785145, -0.493863270028, "(0.001, 0.0, 0.0, 0.0, 0.001, 0.0, 0.0, 0.0, 0.001)", 0.864479454752, 0.20042294294, 0.313961981418, "(0.001, 0.0, 0.0, 0.0, 0.001, 0.0, 0.0, 0.0, 0.001)"
1637149569071459099, 16786, 1636513402, 700196981, base_link, -0.00197482719349, -0.0165131532417, -0.830216435573, 0.557193041891, "(0.0020947667880611004, 0.0, 0.0, 0.0, 0.0020723336036332918, 0.0, 0.0, 0.0, 0.04714750349219288)", 0.00623971784047, -0.00824837666289, -0.334366099698, "(0.001, 0.0, 0.0, 0.0, 0.001, 0.0, 0.0, 0.0, 0.001)", 1.65692719308, 0.386422720968, 0.0967112880349, "(0.001, 0.0, 0.0, 0.0, 0.001, 0.0, 0.0, 0.0, 0.001)"
1637149569090323451, 16787, 1636513402, 719538927, base_link, -0.00191076559481, -0.0164055181939, -0.831414374182, 0.555407369731, "(0.0020947667880611004, 0.0, 0.0, 0.0, 0.0020723336036332918, 0.0, 0.0, 0.0, 0.04714750349219288)", -0.00626484470031, 0.00628639437871, -0.509133068035, "(0.001, 0.0, 0.0, 0.0, 0.001, 0.0, 0.0, 0.0, 0.001)", 1.98908467114, 0.533502457371, 0.691979534714, "(0.001, 0.0, 0.0, 0.0, 0.001, 0.0, 0.0, 0.0, 0.001)"
1637149569110533064, 16788, 1636513402, 739588975, base_link, -0.00183461603538, -0.0162695509397, -0.832602158231, 0.553629462733, "(0.0020947667880611004, 0.0, 0.0, 0.0, 0.0020723336036332918, 0.0, 0.0, 0.0, 0.04714750349219288)", -0.0118608245524, 0.0143558397578, -0.342153940299, "(0.001, 0.0, 0.0, 0.0, 0.001, 0.0, 0.0, 0.0, 0.001)", 1.2186933278, 0.181013631119, 0.349196977757, "(0.001, 0.0, 0.0, 0.0, 0.001, 0.0, 0.0, 0.0, 0.001)"
1637149569129901250, 16789, 1636513402, 759071111, base_link, -0.00176049739753, -0.0160764881624, -0.833822122857, 0.551796261868, "(0.0020947667880611004, 0.0, 0.0, 0.0, 0.0020723336036332918, 0.0, 0.0, 0.0, 0.04714750349219288)", -0.0275446334173, 0.0280177919678, -0.522132000998, "(0.001, 0.0, 0.0, 0.0, 0.001, 0.0, 0.0, 0.0, 0.001)", 1.99636830288, -0.100271521084, 0.590101345285, "(0.001, 0.0, 0.0, 0.0, 0.001, 0.0, 0.0, 0.0, 0.001)"
1637149569151840580, 16790, 1636513402, 780997037, base_link, -0.00166214203184, -0.0158419127368, -0.835031404739, 0.54997165762, "(0.0020947667880611004, 0.0, 0.0, 0.0, 0.0020723336036332918, 0.0, 0.0, 0.0, 0.04714750349219288)", -0.0234483630437, 0.0260317104943, -0.349469648114, "(0.001, 0.0, 0.0, 0.0, 0.001, 0.0, 0.0, 0.0, 0.001)", 0.937455183913, 0.397745270089, 0.520234064231, "(0.001, 0.0, 0.0, 0.0, 0.001, 0.0, 0.0, 0.0, 0.001)"
1637149569171269259, 16791, 1636513402, 800462007, base_link, -0.00164972957357, -0.0155602834121, -0.836265326051, 0.548101688027, "(0.0020947667880611004, 0.0, 0.0, 0.0, 0.0020723336036332918, 0.0, 0.0, 0.0, 0.04714750349219288)", -0.0506802555657, 0.0369727367519, -0.533235014095, "(0.001, 0.0, 0.0, 0.0, 0.001, 0.0, 0.0, 0.0, 0.001)", 1.76395485976, 0.00436982292816, 0.612093706603, "(0.001, 0.0, 0.0, 0.0, 0.001, 0.0, 0.0, 0.0, 0.001)"
1637149569190487731, 16792, 1636513402, 819677114, base_link, -0.00162541248274, -0.0153269696497, -0.837498751778, 0.546221825641, "(0.0020947667880611004, 0.0, 0.0, 0.0, 0.0020723336036332918, 0.0, 0.0, 0.0, 0.04714750349219288)", -0.0332026510202, 0.0212570376047, -0.357466296429, "(0.001, 0.0, 0.0, 0.0, 0.001, 0.0, 0.0, 0.0, 0.001)", 0.358005830114, -0.258861194628, 0.312330841579, "(0.001, 0.0, 0.0, 0.0, 0.001, 0.0, 0.0, 0.0, 0.001)"
1637149569211044570, 16793, 1636513402, 840240955, base_link, -0.00161159401264, -0.0151087586459, -0.83872812525, 0.544338369116, "(0.0020947667880611004, 0.0, 0.0, 0.0, 0.0020723336036332918, 0.0, 0.0, 0.0, 0.04714750349219288)", -0.0486681833951, 0.0260486653361, -0.539564276378, "(0.001, 0.0, 0.0, 0.0, 0.001, 0.0, 0.0, 0.0, 0.001)", 1.76994038445, 0.0772668524912, 0.0472022650924, "(0.001, 0.0, 0.0, 0.0, 0.001, 0.0, 0.0, 0.0, 0.001)"
1637149569230150462, 16794, 1636513402, 859349012, base_link, -0.00160261812297, -0.0148700816831, -0.839974734753, 0.542419355539, "(0.0020947667880611004, 0.0, 0.0, 0.0, 0.0020723336036332918, 0.0, 0.0, 0.0, 0.04714750349219288)", -0.0340673206774, 0.018697757799, -0.362981117232, "(0.001, 0.0, 0.0, 0.0, 0.001, 0.0, 0.0, 0.0, 0.001)", 0.604839518008, -0.486943604205, 0.11408644503, "(0.001, 0.0, 0.0, 0.0, 0.001, 0.0, 0.0, 0.0, 0.001)"
1637149569250027080, 16795, 1636513402, 879141092, base_link, -0.00160261812297, -0.0148700816831, -0.839974734753, 0.542419355539, "(0.0020947667880611004, 0.0, 0.0, 0.0, 0.0020723336036332918, 0.0, 0.0, 0.0, 0.04714750349219288)", -0.0479905966974, 0.0353662445534, -0.552239162654, "(0.001, 0.0, 0.0, 0.0, 0.001, 0.0, 0.0, 0.0, 0.001)", 1.03822163702, -0.47060584663, 0.0212480319214, "(0.001, 0.0, 0.0, 0.0, 0.001, 0.0, 0.0, 0.0, 0.001)"
1637149569270608588, 16796, 1636513402, 899676084, base_link, -0.00147453591455, -0.0143827481906, -0.842521445891, 0.538468732158, "(0.0020947667880611004, 0.0, 0.0, 0.0, 0.0020723336036332918, 0.0, 0.0, 0.0, 0.04714750349219288)", -0.0321702662856, 0.0226820436467, -0.376753755186, "(0.001, 0.0, 0.0, 0.0, 0.001, 0.0, 0.0, 0.0, 0.001)", 0.346511506693, -0.423323798005, -0.220058368768, "(0.001, 0.0, 0.0, 0.0, 0.001, 0.0, 0.0, 0.0, 0.001)"
1637149569289951647, 16797, 1636513402, 919224977, base_link, -0.00136982747059, -0.0142098152858, -0.843798517837, 0.536470191174, "(0.0020947667880611004, 0.0, 0.0, 0.0, 0.0020723336036332918, 0.0, 0.0, 0.0, 0.04714750349219288)", -0.0356121035069, 0.0367322723245, -0.567679937854, "(0.001, 0.0, 0.0, 0.0, 0.001, 0.0, 0.0, 0.0, 0.001)", 0.514376647094, -0.724184484789, -0.324021605987, "(0.001, 0.0, 0.0, 0.0, 0.001, 0.0, 0.0, 0.0, 0.001)"
1637149569310629922, 16798, 1636513402, 939877033, base_link, -0.00126359497617, -0.0140106569486, -0.845077361953, 0.53445893868, "(0.0020947667880611004, 0.0, 0.0, 0.0, 0.0020723336036332918, 0.0, 0.0, 0.0, 0.04714750349219288)", -0.0214832587887, 0.0253276284993, -0.381225216004, "(0.001, 0.0, 0.0, 0.0, 0.001, 0.0, 0.0, 0.0, 0.001)", 1.18786892032, -0.026983128717, -0.412292583815, "(0.001, 0.0, 0.0, 0.0, 0.001, 0.0, 0.0, 0.0, 0.001)"
1637149569331057049, 16799, 1636513402, 960277080, base_link, -0.00114951733705, -0.0138428766928, -0.846363367193, 0.532424740267, "(0.0020947667880611004, 0.0, 0.0, 0.0, 0.0020723336036332918, 0.0, 0.0, 0.0, 0.04714750349219288)", -0.028041497091, 0.0394085299424, -0.574719071014, "(0.001, 0.0, 0.0, 0.0, 0.001, 0.0, 0.0, 0.0, 0.001)", 0.234159838037, -0.65029555604, -0.364228841786, "(0.001, 0.0, 0.0, 0.0, 0.001, 0.0, 0.0, 0.0, 0.001)"
1637149569350363334, 16800, 1636513402, 979526996, base_link, -0.00104021367022, -0.0137543991346, -0.84764494995, 0.530384552268, "(0.0020947667880611004, 0.0, 0.0, 0.0, 0.0020723336036332918, 0.0, 0.0, 0.0, 0.04714750349219288)", -0.010396081347, 0.0199649732659, -0.385454985288, "(0.001, 0.0, 0.0, 0.0, 0.001, 0.0, 0.0, 0.0, 0.001)", 0.494620877015, -0.776559437424, -0.383964937483, "(0.001, 0.0, 0.0, 0.0, 0.001, 0.0, 0.0, 0.0, 0.001)"
1637149569370798428, 16801, 1636513402, 999429941, base_link, -0.000931944973707, -0.013685033967, -0.848933758293, 0.528321233109, "(0.0020947667880611004, 0.0, 0.0, 0.0, 0.0020723336036332918, 0.0, 0.0, 0.0, 0.04714750349219288)", -0.00863088515943, 0.0272782231395, -0.581584795181, "(0.001, 0.0, 0.0, 0.0, 0.001, 0.0, 0.0, 0.0, 0.001)", 0.744418062673, -0.607700642346, -0.179213516148, "(0.001, 0.0, 0.0, 0.0, 0.001, 0.0, 0.0, 0.0, 0.001)"
1637149569392124068, 16802, 1636513403, 21045923, base_link, -0.000864154370125, -0.0136494031312, -0.850214537047, 0.526258670262, "(0.0020947667880611004, 0.0, 0.0, 0.0, 0.0020723336036332918, 0.0, 0.0, 0.0, 0.04714750349219288)", -0.00358975201175, 0.0124630294336, -0.388092490096, "(0.001, 0.0, 0.0, 0.0, 0.001, 0.0, 0.0, 0.0, 0.001)", -0.336880650517, -0.636427128998, 0.215014335139, "(0.001, 0.0, 0.0, 0.0, 0.001, 0.0, 0.0, 0.0, 0.001)"
1637149569409983208, 16803, 1636513403, 39160013, base_link, -0.000922560720958, -0.0137430530008, -0.851513313227, 0.524152034026, "(0.0020947667880611004, 0.0, 0.0, 0.0, 0.0020723336036332918, 0.0, 0.0, 0.0, 0.04714750349219288)", 0.000920582987546, -0.00946599192232, -0.590090640656, "(0.001, 0.0, 0.0, 0.0, 0.001, 0.0, 0.0, 0.0, 0.001)", 0.0561651576526, -0.84832271486, -0.0728995547294, "(0.001, 0.0, 0.0, 0.0, 0.001, 0.0, 0.0, 0.0, 0.001)"
1637149569431565697, 16804, 1636513403, 60739040, base_link, -0.00100747993987, -0.0138640151264, -0.85280015484, 0.522052363249, "(0.0020947667880611004, 0.0, 0.0, 0.0, 0.0020723336036332918, 0.0, 0.0, 0.0, 0.04714750349219288)", 0.00547032068321, -0.0202879999547, -0.392952771503, "(0.001, 0.0, 0.0, 0.0, 0.001, 0.0, 0.0, 0.0, 0.001)", -0.498682154401, -0.261123762373, 0.266306969933, "(0.001, 0.0, 0.0, 0.0, 0.001, 0.0, 0.0, 0.0, 0.001)"
