time, .header.seq, .header.stamp.secs, .header.stamp.nsecs, .header.frame_id, .orientation.x, .orientation.y, .orientation.z, .orientation.w, .orientation_covariance, .angular_velocity.x, .angular_velocity.y, .angular_velocity.z, .angular_velocity_covariance, .linear_acceleration.x, .linear_acceleration.y, .linear_acceleration.z, .linear_acceleration_covariance
1637149413129058159, 14089, 1636513329, 860342025, base_link, 0.00140038020132, -0.0157682611225, -0.689763801317, 0.723861381253, "(0.002000005816430672, 0.0, 0.0, 0.0, 0.0019955367640103194, 0.0, 0.0, 0.0, 0.0222393662890783)", 0.00102442407077, 0.000152032557762, -0.000313262677589, "(0.001, 0.0, 0.0, 0.0, 0.001, 0.0, 0.0, 0.0, 0.001)", -0.0302762253334, -0.0219054923298, 0.180165881634, "(0.001, 0.0, 0.0, 0.0, 0.001, 0.0, 0.0, 0.0, 0.001)"
1637149413144934259, 14090, 1636513329, 880646944, base_link, 0.00141658546509, -0.0157820744803, -0.689766358149, 0.723858612283, "(0.002000005816430672, 0.0, 0.0, 0.0, 0.0019955367640103194, 0.0, 0.0, 0.0, 0.0222393662890783)", 0.00234951925324, 0.0012351799996, -0.00126027421373, "(0.001, 0.0, 0.0, 0.0, 0.001, 0.0, 0.0, 0.0, 0.001)", -0.0139644516355, -0.0560616204484, -0.427313675966, "(0.001, 0.0, 0.0, 0.0, 0.001, 0.0, 0.0, 0.0, 0.001)"
1637149413163784854, 14091, 1636513329, 899631023, base_link, 0.00144738946186, -0.0157822803747, -0.689771446182, 0.723853698424, "(0.002000005816430672, 0.0, 0.0, 0.0, 0.0019955367640103194, 0.0, 0.0, 0.0, 0.0222393662890783)", 0.00363815167104, 0.00161987217996, -0.000783783413616, "(0.001, 0.0, 0.0, 0.0, 0.001, 0.0, 0.0, 0.0, 0.001)", 0.0773338795284, -0.325975408049, -0.0877541456998, "(0.001, 0.0, 0.0, 0.0, 0.001, 0.0, 0.0, 0.0, 0.001)"
1637149413183642734, 14092, 1636513329, 919637918, base_link, 0.00149026316731, -0.015826299911, -0.689770380514, 0.723853665814, "(0.002000005816430672, 0.0, 0.0, 0.0, 0.0019955367640103194, 0.0, 0.0, 0.0, 0.0222393662890783)", 0.0116785200116, 0.00182004660817, -0.000488077781942, "(0.001, 0.0, 0.0, 0.0, 0.001, 0.0, 0.0, 0.0, 0.001)", -0.164656412138, 0.946736372885, 0.0821701010099, "(0.001, 0.0, 0.0, 0.0, 0.001, 0.0, 0.0, 0.0, 0.001)"
1637149413205671770, 14093, 1636513329, 941581964, base_link, 0.00147353385299, -0.0157980313634, -0.689775967807, 0.723848993326, "(0.002000005816430672, 0.0, 0.0, 0.0, 0.0019955367640103194, 0.0, 0.0, 0.0, 0.0222393662890783)", -0.00133873959948, 0.00106747155277, -0.00106129785392, "(0.001, 0.0, 0.0, 0.0, 0.001, 0.0, 0.0, 0.0, 0.001)", 0.226737824717, -0.122253527602, -0.0827842214128, "(0.001, 0.0, 0.0, 0.0, 0.001, 0.0, 0.0, 0.0, 0.001)"
1637149413224264692, 14094, 1636513329, 959511041, base_link, 0.00151289612105, -0.0158628279696, -0.689773366106, 0.723849974266, "(0.002000005816430672, 0.0, 0.0, 0.0, 0.0019955367640103194, 0.0, 0.0, 0.0, 0.0222393662890783)", 0.00905029379431, -0.00139894481109, 0.000161597103272, "(0.001, 0.0, 0.0, 0.0, 0.001, 0.0, 0.0, 0.0, 0.001)", -0.455892051622, -0.627327916148, 0.104376074866, "(0.001, 0.0, 0.0, 0.0, 0.001, 0.0, 0.0, 0.0, 0.001)"
1637149413244833159, 14095, 1636513329, 980736970, base_link, 0.00154155368345, -0.0158742394344, -0.689776612681, 0.723846569884, "(0.002000005816430672, 0.0, 0.0, 0.0, 0.0019955367640103194, 0.0, 0.0, 0.0, 0.0222393662890783)", 0.0048778514703, -0.000427961911019, -0.00106965724021, "(0.001, 0.0, 0.0, 0.0, 0.001, 0.0, 0.0, 0.0, 0.001)", 0.38196873218, 0.140770607588, -0.354272934534, "(0.001, 0.0, 0.0, 0.0, 0.001, 0.0, 0.0, 0.0, 0.001)"
1637149413264073967, 14096, 1636513330, 8106, base_link, 0.00158324613174, -0.0159370219555, -0.689775946986, 0.723845734685, "(0.002000005816430672, 0.0, 0.0, 0.0, 0.0019955367640103194, 0.0, 0.0, 0.0, 0.0222393662890783)", 0.012960612993, -0.00140674032121, -0.000302252073504, "(0.001, 0.0, 0.0, 0.0, 0.001, 0.0, 0.0, 0.0, 0.001)", -0.376365798625, 0.383884435575, -0.0102948235162, "(0.001, 0.0, 0.0, 0.0, 0.001, 0.0, 0.0, 0.0, 0.001)"
1637149413284440560, 14097, 1636513330, 19905090, base_link, 0.00158621090256, -0.0159579776577, -0.689762119453, 0.723858442965, "(0.002000005816430672, 0.0, 0.0, 0.0, 0.0019955367640103194, 0.0, 0.0, 0.0, 0.0222393662890783)", 0.00634787229551, -0.00187338567249, 0.00147430662827, "(0.001, 0.0, 0.0, 0.0, 0.001, 0.0, 0.0, 0.0, 0.001)", 0.372325902657, 0.564865526047, 0.0968215587892, "(0.001, 0.0, 0.0, 0.0, 0.001, 0.0, 0.0, 0.0, 0.001)"
1637149413304171766, 14098, 1636513330, 40100097, base_link, 0.00157918357069, -0.0159594885353, -0.689775180681, 0.723845978798, "(0.002000005816430672, 0.0, 0.0, 0.0, 0.0019955367640103194, 0.0, 0.0, 0.0, 0.0222393662890783)", 0.00162695939925, -0.00231043531199, -0.000490193097877, "(0.001, 0.0, 0.0, 0.0, 0.001, 0.0, 0.0, 0.0, 0.001)", -0.179260641153, -1.29850912747, 0.112695427217, "(0.001, 0.0, 0.0, 0.0, 0.001, 0.0, 0.0, 0.0, 0.001)"
1637149413326200530, 14099, 1636513330, 62138080, base_link, 0.00161358173099, -0.0160039161012, -0.689771332748, 0.723848588824, "(0.002000005816430672, 0.0, 0.0, 0.0, 0.0019955367640103194, 0.0, 0.0, 0.0, 0.0222393662890783)", 0.00677483268782, -0.00106104969052, -0.0002306553774, "(0.001, 0.0, 0.0, 0.0, 0.001, 0.0, 0.0, 0.0, 0.001)", -0.138464697637, -0.186577519928, 0.205460474077, "(0.001, 0.0, 0.0, 0.0, 0.001, 0.0, 0.0, 0.0, 0.001)"
1637149413344379572, 14100, 1636513330, 80092906, base_link, 0.00158215694655, -0.0160012715469, -0.689783801576, 0.723836834633, "(0.002000005816430672, 0.0, 0.0, 0.0, 0.0019955367640103194, 0.0, 0.0, 0.0, 0.0222393662890783)", -0.000192592274457, -0.00417297682087, -0.00259044338252, "(0.001, 0.0, 0.0, 0.0, 0.001, 0.0, 0.0, 0.0, 0.001)", 0.248317664115, 0.132521092089, -0.165840397277, "(0.001, 0.0, 0.0, 0.0, 0.001, 0.0, 0.0, 0.0, 0.001)"
1637149413363650244, 14101, 1636513330, 99620103, base_link, 0.00161570740412, -0.0160213787783, -0.689778364265, 0.723841497224, "(0.002000005816430672, 0.0, 0.0, 0.0, 0.0019955367640103194, 0.0, 0.0, 0.0, 0.0222393662890783)", 0.00452613847987, 0.000395741975296, 0.000356311366361, "(0.001, 0.0, 0.0, 0.0, 0.001, 0.0, 0.0, 0.0, 0.001)", -0.219548696026, 0.288119612244, 0.166774025753, "(0.001, 0.0, 0.0, 0.0, 0.001, 0.0, 0.0, 0.0, 0.001)"
1637149413384608698, 14102, 1636513330, 120563030, base_link, 0.00159888989348, -0.0160175815394, -0.689777999833, 0.723841965887, "(0.002000005816430672, 0.0, 0.0, 0.0, 0.0019955367640103194, 0.0, 0.0, 0.0, 0.0222393662890783)", 0.000855907885772, -0.0017100166496, -0.000346724341645, "(0.001, 0.0, 0.0, 0.0, 0.001, 0.0, 0.0, 0.0, 0.001)", 0.250406248482, -0.267889902814, -0.0138730624516, "(0.001, 0.0, 0.0, 0.0, 0.001, 0.0, 0.0, 0.0, 0.001)"
1637149413404817910, 14103, 1636513330, 139803886, base_link, 0.00160594907769, -0.0160330306377, -0.689783819553, 0.723836062337, "(0.002000005816430672, 0.0, 0.0, 0.0, 0.0019955367640103194, 0.0, 0.0, 0.0, 0.0222393662890783)", 0.00181954071693, -0.000489174296976, -5.90800463585e-05, "(0.001, 0.0, 0.0, 0.0, 0.001, 0.0, 0.0, 0.0, 0.001)", -0.303507610861, -0.627911220136, 0.21380589956, "(0.001, 0.0, 0.0, 0.0, 0.001, 0.0, 0.0, 0.0, 0.001)"
1637149413424161349, 14104, 1636513330, 159723043, base_link, 0.00162165331823, -0.0160407599049, -0.689774906604, 0.723844349623, "(0.002000005816430672, 0.0, 0.0, 0.0, 0.0019955367640103194, 0.0, 0.0, 0.0, 0.0222393662890783)", 0.00349876347458, 1.26854938914e-05, 0.000657738486526, "(0.001, 0.0, 0.0, 0.0, 0.001, 0.0, 0.0, 0.0, 0.001)", 0.211501832129, 0.333434193784, 0.040140220404, "(0.001, 0.0, 0.0, 0.0, 0.001, 0.0, 0.0, 0.0, 0.001)"
1637149413444874624, 14105, 1636513330, 180830001, base_link, 0.00159583989049, -0.016038670086, -0.689784605515, 0.723835210771, "(0.002000005816430672, 0.0, 0.0, 0.0, 0.0019955367640103194, 0.0, 0.0, 0.0, 0.0222393662890783)", -0.00109741831212, -0.00142880512016, -0.000697880754224, "(0.001, 0.0, 0.0, 0.0, 0.001, 0.0, 0.0, 0.0, 0.001)", -0.148049013511, 0.19703624513, -0.0325257227486, "(0.001, 0.0, 0.0, 0.0, 0.001, 0.0, 0.0, 0.0, 0.001)"
1637149413463890610, 14106, 1636513330, 199814081, base_link, 0.00163900868613, -0.0160688052616, -0.689771614801, 0.723846825345, "(0.002000005816430672, 0.0, 0.0, 0.0, 0.0019955367640103194, 0.0, 0.0, 0.0, 0.0222393662890783)", 0.00677089947951, -0.000496735759732, 0.0017415889489, "(0.001, 0.0, 0.0, 0.0, 0.001, 0.0, 0.0, 0.0, 0.001)", 0.225862285025, 0.186880266989, 0.0506923469378, "(0.001, 0.0, 0.0, 0.0, 0.001, 0.0, 0.0, 0.0, 0.001)"
1637149413484668931, 14107, 1636513330, 220489025, base_link, 0.00163900868613, -0.0160688052616, -0.689771614801, 0.723846825345, "(0.002000005816430672, 0.0, 0.0, 0.0, 0.0019955367640103194, 0.0, 0.0, 0.0, 0.0222393662890783)", 0.000375396617626, 0.00104189708039, -0.000296513260961, "(0.001, 0.0, 0.0, 0.0, 0.001, 0.0, 0.0, 0.0, 0.001)", 0.195563503974, -0.103393392825, -0.0593416574263, "(0.001, 0.0, 0.0, 0.0, 0.001, 0.0, 0.0, 0.0, 0.001)"
1637149413504583491, 14108, 1636513330, 240458965, base_link, 0.00166297661152, -0.0160768621038, -0.689766723829, 0.723851252477, "(0.002000005816430672, 0.0, 0.0, 0.0, 0.0019955367640103194, 0.0, 0.0, 0.0, 0.0222393662890783)", 0.00487444956098, 0.00121444055603, 0.00216703916253, "(0.001, 0.0, 0.0, 0.0, 0.001, 0.0, 0.0, 0.0, 0.001)", -0.226047424852, -0.0359671726993, 0.229519868798, "(0.001, 0.0, 0.0, 0.0, 0.001, 0.0, 0.0, 0.0, 0.001)"
1637149413523527732, 14109, 1636513330, 259440898, base_link, 0.00167086367271, -0.0160730934254, -0.689758660763, 0.723859001315, "(0.002000005816430672, 0.0, 0.0, 0.0, 0.0019955367640103194, 0.0, 0.0, 0.0, 0.0222393662890783)", 0.00119613084004, 0.00077449005874, 0.00072912681188, "(0.001, 0.0, 0.0, 0.0, 0.001, 0.0, 0.0, 0.0, 0.001)", 0.447885983633, 0.364853462387, -0.0791806613377, "(0.001, 0.0, 0.0, 0.0, 0.001, 0.0, 0.0, 0.0, 0.001)"
1637149413545003400, 14110, 1636513330, 280942916, base_link, 0.00167263355702, -0.016076491726, -0.689763983242, 0.723853849981, "(0.002000005816430672, 0.0, 0.0, 0.0, 0.0019955367640103194, 0.0, 0.0, 0.0, 0.0222393662890783)", 0.00107933765873, 0.000945654798944, 0.000271226824287, "(0.001, 0.0, 0.0, 0.0, 0.001, 0.0, 0.0, 0.0, 0.001)", -0.382665749299, 0.141671702443, -0.00630516551013, "(0.001, 0.0, 0.0, 0.0, 0.001, 0.0, 0.0, 0.0, 0.001)"
1637149413567482072, 14111, 1636513330, 303378105, base_link, 0.00170310930774, -0.0160909665758, -0.689757151892, 0.723859966864, "(0.002000005816430672, 0.0, 0.0, 0.0, 0.0019955367640103194, 0.0, 0.0, 0.0, 0.0222393662890783)", 0.00364215076009, 0.000755430761518, 0.00084815522379, "(0.001, 0.0, 0.0, 0.0, 0.001, 0.0, 0.0, 0.0, 0.001)", 0.168946387442, 0.0657598926142, 0.00492565422993, "(0.001, 0.0, 0.0, 0.0, 0.001, 0.0, 0.0, 0.0, 0.001)"
1637149413585490087, 14112, 1636513330, 321367025, base_link, 0.00169653706597, -0.0160647119674, -0.68976089625, 0.723856997476, "(0.0020825994544912962, 0.0, 0.0, 0.0, 0.0020780739888681815, 0.0, 0.0, 0.0, 0.022357855346727185)", -0.000572250973389, 0.00263695057315, -0.000535715830873, "(0.001, 0.0, 0.0, 0.0, 0.001, 0.0, 0.0, 0.0, 0.001)", -0.0338588274603, -0.104799642325, 0.0252765159474, "(0.001, 0.0, 0.0, 0.0, 0.001, 0.0, 0.0, 0.0, 0.001)"
1637149413610839468, 14113, 1636513330, 346834897, base_link, 0.00168995633396, -0.016066373787, -0.689761077058, 0.723856803696, "(0.0017504987901667685, 0.0, 0.0, 0.0, 0.0017467398534256606, 0.0, 0.0, 0.0, 0.02144579503472266)", -0.000760159825029, 0.000354004486258, 0.000359137667166, "(0.001, 0.0, 0.0, 0.0, 0.001, 0.0, 0.0, 0.0, 0.001)", -0.254079869505, -0.0738767845471, 0.0349796933916, "(0.001, 0.0, 0.0, 0.0, 0.001, 0.0, 0.0, 0.0, 0.001)"
1637149413624928549, 14114, 1636513330, 360357999, base_link, 0.00168558931576, -0.0160568975525, -0.68976996851, 0.723848551406, "(0.0017504987901667685, 0.0, 0.0, 0.0, 0.0017467398534256606, 0.0, 0.0, 0.0, 0.02144579503472266)", -0.00176067654628, -6.16382427895e-06, -0.00211253769602, "(0.001, 0.0, 0.0, 0.0, 0.001, 0.0, 0.0, 0.0, 0.001)", 0.138100428493, 0.134297644216, -0.0623159980653, "(0.001, 0.0, 0.0, 0.0, 0.001, 0.0, 0.0, 0.0, 0.001)"
1637149413643787772, 14115, 1636513330, 379652023, base_link, 0.00167868289634, -0.0160575505385, -0.689779699296, 0.723839280181, "(0.0017504987901667685, 0.0, 0.0, 0.0, 0.0017467398534256606, 0.0, 0.0, 0.0, 0.02144579503472266)", -0.00131462858712, -0.000241328587414, -0.00163172861087, "(0.001, 0.0, 0.0, 0.0, 0.001, 0.0, 0.0, 0.0, 0.001)", -0.18092716619, -0.0419575364374, -0.129107086767, "(0.001, 0.0, 0.0, 0.0, 0.001, 0.0, 0.0, 0.0, 0.001)"
1637149413665368176, 14116, 1636513330, 401170015, base_link, 0.00167097959178, -0.0160627299601, -0.68977685417, 0.723841894328, "(0.0017504987901667685, 0.0, 0.0, 0.0, 0.0017467398534256606, 0.0, 0.0, 0.0, 0.02144579503472266)", -0.000134680975198, -0.0014468566565, -0.000399235588344, "(0.001, 0.0, 0.0, 0.0, 0.001, 0.0, 0.0, 0.0, 0.001)", 0.0364887958401, -0.0338361788193, 0.017309086151, "(0.001, 0.0, 0.0, 0.0, 0.001, 0.0, 0.0, 0.0, 0.001)"
1637149413685222502, 14117, 1636513330, 421140909, base_link, 0.00167514012725, -0.0160486033689, -0.689777331259, 0.72384174342, "(0.0017504987901667685, 0.0, 0.0, 0.0, 0.0017467398534256606, 0.0, 0.0, 0.0, 0.02144579503472266)", -0.00125264731665, 0.000717238906657, -0.00035310059595, "(0.001, 0.0, 0.0, 0.0, 0.001, 0.0, 0.0, 0.0, 0.001)", 0.102077638269, -0.130126638006, -0.0579113577952, "(0.001, 0.0, 0.0, 0.0, 0.001, 0.0, 0.0, 0.0, 0.001)"
1637149413703178948, 14118, 1636513330, 439183950, base_link, 0.00167514012725, -0.0160486033689, -0.689777331259, 0.72384174342, "(0.0017504987901667685, 0.0, 0.0, 0.0, 0.0017467398534256606, 0.0, 0.0, 0.0, 0.02144579503472266)", -0.000554069345409, -0.00116976261212, 0.000167833477332, "(0.001, 0.0, 0.0, 0.0, 0.001, 0.0, 0.0, 0.0, 0.001)", -0.157885415935, -0.109130840466, -0.0108209162581, "(0.001, 0.0, 0.0, 0.0, 0.001, 0.0, 0.0, 0.0, 0.001)"
1637149413725866187, 14119, 1636513330, 461407899, base_link, 0.00166184264814, -0.016061697155, -0.68977827027, 0.723840588822, "(0.0017504987901667685, 0.0, 0.0, 0.0, 0.0017467398534256606, 0.0, 0.0, 0.0, 0.02144579503472266)", -0.000112387782169, -0.00087805144984, -6.58971473076e-05, "(0.001, 0.0, 0.0, 0.0, 0.001, 0.0, 0.0, 0.0, 0.001)", 0.0901776140026, 0.05595561813, 0.0144514331065, "(0.001, 0.0, 0.0, 0.0, 0.001, 0.0, 0.0, 0.0, 0.001)"
1637149413744413480, 14120, 1636513330, 480380058, base_link, 0.00167501172846, -0.0160784578558, -0.689772942, 0.723845263861, "(0.0017504987901667685, 0.0, 0.0, 0.0, 0.0017467398534256606, 0.0, 0.0, 0.0, 0.02144579503472266)", 0.00177850314896, -0.000691393018721, 0.000322897206549, "(0.001, 0.0, 0.0, 0.0, 0.001, 0.0, 0.0, 0.0, 0.001)", -0.0348286192258, -0.1045454364, -0.157323565905, "(0.001, 0.0, 0.0, 0.0, 0.001, 0.0, 0.0, 0.0, 0.001)"
1637149413763740222, 14121, 1636513330, 499730110, base_link, 0.00166892480605, -0.016097161334, -0.689771051823, 0.723846663427, "(0.0017504987901667685, 0.0, 0.0, 0.0, 0.0017467398534256606, 0.0, 0.0, 0.0, 0.02144579503472266)", 0.00244686694955, -0.00195555560747, 0.000613778813382, "(0.001, 0.0, 0.0, 0.0, 0.001, 0.0, 0.0, 0.0, 0.001)", -0.0106421440078, 0.20429686949, 0.217963701814, "(0.001, 0.0, 0.0, 0.0, 0.001, 0.0, 0.0, 0.0, 0.001)"
1637149413784162042, 14122, 1636513330, 520137071, base_link, 0.00166425866048, -0.0160845021449, -0.689762401543, 0.723855198539, "(0.0017504987901667685, 0.0, 0.0, 0.0, 0.0017467398534256606, 0.0, 0.0, 0.0, 0.02144579503472266)", -0.00117581176092, -0.000702456984129, 0.00210854898286, "(0.001, 0.0, 0.0, 0.0, 0.001, 0.0, 0.0, 0.0, 0.001)", 0.0804796349814, -0.346216553591, 0.0377174326419, "(0.001, 0.0, 0.0, 0.0, 0.001, 0.0, 0.0, 0.0, 0.001)"
1637149413804373510, 14123, 1636513330, 540194988, base_link, 0.0016719535832, -0.0161141253561, -0.68975967538, 0.72385711971, "(0.0017504987901667685, 0.0, 0.0, 0.0, 0.0017467398534256606, 0.0, 0.0, 0.0, 0.02144579503472266)", 0.00255177955662, -0.00175942312101, 0.000788815879744, "(0.001, 0.0, 0.0, 0.0, 0.001, 0.0, 0.0, 0.0, 0.001)", -0.0430917271072, -0.0536792888321, -0.0719486149356, "(0.001, 0.0, 0.0, 0.0, 0.001, 0.0, 0.0, 0.0, 0.001)"
1637149413823597755, 14124, 1636513330, 559643030, base_link, 0.00166111294661, -0.0161132469322, -0.689766695596, 0.723850474631, "(0.0017504987901667685, 0.0, 0.0, 0.0, 0.0017467398534256606, 0.0, 0.0, 0.0, 0.02144579503472266)", 0.00111600427433, -0.00203370124498, -0.000533551353251, "(0.001, 0.0, 0.0, 0.0, 0.001, 0.0, 0.0, 0.0, 0.001)", 0.0462039438571, 0.433300568068, 0.0777012685708, "(0.001, 0.0, 0.0, 0.0, 0.001, 0.0, 0.0, 0.0, 0.001)"
1637149413844521888, 14125, 1636513330, 580451011, base_link, 0.0016806855878, -0.0161180602998, -0.689760665897, 0.72385606802, "(0.0017504987901667685, 0.0, 0.0, 0.0, 0.0017467398534256606, 0.0, 0.0, 0.0, 0.02144579503472266)", 0.00120295462957, 0.000493787203298, 0.000364551179829, "(0.001, 0.0, 0.0, 0.0, 0.001, 0.0, 0.0, 0.0, 0.001)", 0.0679415025427, -0.0284056632344, -0.17610371266, "(0.001, 0.0, 0.0, 0.0, 0.001, 0.0, 0.0, 0.0, 0.001)"
1637149413865023775, 14126, 1636513330, 600879907, base_link, 0.00169329309033, -0.0161258315349, -0.689764040325, 0.723852650054, "(0.0017504987901667685, 0.0, 0.0, 0.0, 0.0017467398534256606, 0.0, 0.0, 0.0, 0.02144579503472266)", 0.00379689347176, 4.90184143233e-05, -0.0002834344065, "(0.001, 0.0, 0.0, 0.0, 0.001, 0.0, 0.0, 0.0, 0.001)", 0.107783232963, 0.0368530020704, -0.0146271575516, "(0.001, 0.0, 0.0, 0.0, 0.001, 0.0, 0.0, 0.0, 0.001)"
1637149413885927820, 14127, 1636513330, 620590925, base_link, 0.00171505270272, -0.0161412990049, -0.689761393294, 0.723854776445, "(0.0017504987901667685, 0.0, 0.0, 0.0, 0.0017467398534256606, 0.0, 0.0, 0.0, 0.02144579503472266)", 0.00314774669674, 0.0011888654683, 0.000336697563215, "(0.001, 0.0, 0.0, 0.0, 0.001, 0.0, 0.0, 0.0, 0.001)", -0.150639516158, -0.0225689267375, 0.0673407378577, "(0.001, 0.0, 0.0, 0.0, 0.001, 0.0, 0.0, 0.0, 0.001)"
1637149413903919432, 14128, 1636513330, 639841079, base_link, 0.00172300976398, -0.0161514904813, -0.689764639869, 0.723851436538, "(0.0017504987901667685, 0.0, 0.0, 0.0, 0.0017467398534256606, 0.0, 0.0, 0.0, 0.02144579503472266)", 0.00437871519979, 0.000153082792149, -0.00102373001393, "(0.001, 0.0, 0.0, 0.0, 0.001, 0.0, 0.0, 0.0, 0.001)", 0.136957812137, 0.138423813277, -0.0700910755575, "(0.001, 0.0, 0.0, 0.0, 0.001, 0.0, 0.0, 0.0, 0.001)"
1637149413923752419, 14129, 1636513330, 659527063, base_link, 0.00173097816933, -0.016161323478, -0.68977172001, 0.723844451255, "(0.0017504987901667685, 0.0, 0.0, 0.0, 0.0017467398534256606, 0.0, 0.0, 0.0, 0.02144579503472266)", 0.00227718597562, -8.18911120482e-05, -0.000499094290861, "(0.001, 0.0, 0.0, 0.0, 0.001, 0.0, 0.0, 0.0, 0.001)", -0.237498331891, -0.00921849527376, 0.0747994051647, "(0.001, 0.0, 0.0, 0.0, 0.001, 0.0, 0.0, 0.0, 0.001)"
1637149413943690980, 14130, 1636513330, 679557085, base_link, 0.00175072062278, -0.0161869265308, -0.689772454183, 0.723843132064, "(0.0017504987901667685, 0.0, 0.0, 0.0, 0.0017467398534256606, 0.0, 0.0, 0.0, 0.02144579503472266)", 0.00486211924015, -0.000497993675614, -0.0014563282393, "(0.001, 0.0, 0.0, 0.0, 0.001, 0.0, 0.0, 0.0, 0.001)", 0.0727195253304, 0.0148787336528, -0.186617944169, "(0.001, 0.0, 0.0, 0.0, 0.001, 0.0, 0.0, 0.0, 0.001)"
1637149413964177366, 14131, 1636513330, 700048923, base_link, 0.00176493001327, -0.0161974964588, -0.689784505114, 0.723831377211, "(0.0017504987901667685, 0.0, 0.0, 0.0, 0.0017467398534256606, 0.0, 0.0, 0.0, 0.02144579503472266)", 0.0034791380576, -0.000404873518886, -0.00171814513231, "(0.001, 0.0, 0.0, 0.0, 0.001, 0.0, 0.0, 0.0, 0.001)", -0.0125875360654, 0.0906543287852, -0.0271265934474, "(0.001, 0.0, 0.0, 0.0, 0.001, 0.0, 0.0, 0.0, 0.001)"
1637149413983392623, 14132, 1636513330, 719383001, base_link, 0.00178359381242, -0.0162177539831, -0.689780100815, 0.723835074978, "(0.0017504987901667685, 0.0, 0.0, 0.0, 0.0017467398534256606, 0.0, 0.0, 0.0, 0.02144579503472266)", 0.00644529089541, -8.37487341112e-05, -0.000446114269338, "(0.001, 0.0, 0.0, 0.0, 0.001, 0.0, 0.0, 0.0, 0.001)", -0.0245761189829, -0.118045073117, -0.0407166968472, "(0.001, 0.0, 0.0, 0.0, 0.001, 0.0, 0.0, 0.0, 0.001)"
1637149414003634766, 14133, 1636513330, 739643096, base_link, 0.0018061251837, -0.0162259115558, -0.689785458952, 0.723829730202, "(0.0017504987901667685, 0.0, 0.0, 0.0, 0.0017467398534256606, 0.0, 0.0, 0.0, 0.02144579503472266)", 0.00312363250876, 0.000618761786289, -0.00113683525466, "(0.001, 0.0, 0.0, 0.0, 0.001, 0.0, 0.0, 0.0, 0.001)", 0.191546438482, -0.100535966201, -0.0629839761731, "(0.001, 0.0, 0.0, 0.0, 0.001, 0.0, 0.0, 0.0, 0.001)"
1637149414025154363, 14134, 1636513330, 760524988, base_link, 0.00181431154753, -0.0162467994374, -0.689789306311, 0.723825574763, "(0.0017504987901667685, 0.0, 0.0, 0.0, 0.0017467398534256606, 0.0, 0.0, 0.0, 0.02144579503472266)", 0.00550611239616, -0.000382569683175, -0.00105024238394, "(0.001, 0.0, 0.0, 0.0, 0.001, 0.0, 0.0, 0.0, 0.001)", -0.237769752154, -0.200349057242, 0.0280999723734, "(0.001, 0.0, 0.0, 0.0, 0.001, 0.0, 0.0, 0.0, 0.001)"
1637149414044319564, 14135, 1636513330, 780181884, base_link, 0.00185424715936, -0.0162697385598, -0.689782241889, 0.723831690484, "(0.0017504987901667685, 0.0, 0.0, 0.0, 0.0017467398534256606, 0.0, 0.0, 0.0, 0.02144579503472266)", 0.00537326856185, 0.00078626963119, 0.000166270860752, "(0.001, 0.0, 0.0, 0.0, 0.001, 0.0, 0.0, 0.0, 0.001)", 0.358914677905, -0.0528109223739, -0.151472285028, "(0.001, 0.0, 0.0, 0.0, 0.001, 0.0, 0.0, 0.0, 0.001)"
1637149414064751558, 14136, 1636513330, 800671100, base_link, 0.00186254726738, -0.0162879160709, -0.689785971058, 0.723827706598, "(0.0017504987901667685, 0.0, 0.0, 0.0, 0.0017467398534256606, 0.0, 0.0, 0.0, 0.02144579503472266)", 0.00672267561488, 4.63668187813e-05, -0.00013394033602, "(0.001, 0.0, 0.0, 0.0, 0.001, 0.0, 0.0, 0.0, 0.001)", -0.271987702388, -0.0800473065987, -0.0489122328902, "(0.001, 0.0, 0.0, 0.0, 0.001, 0.0, 0.0, 0.0, 0.001)"
1637149414084886593, 14137, 1636513330, 820847988, base_link, 0.00189071465455, -0.0163059182776, -0.689774426205, 0.723838229981, "(0.0017504987901667685, 0.0, 0.0, 0.0, 0.0017467398534256606, 0.0, 0.0, 0.0, 0.02144579503472266)", 0.00500943078984, 2.50342067722e-05, 0.0013749318613, "(0.001, 0.0, 0.0, 0.0, 0.001, 0.0, 0.0, 0.0, 0.001)", 0.132611969736, -0.110627622642, 0.119474521488, "(0.001, 0.0, 0.0, 0.0, 0.001, 0.0, 0.0, 0.0, 0.001)"
1637149414103169819, 14138, 1636513330, 839178085, base_link, 0.00189580391849, -0.0163182677577, -0.689777674782, 0.723834842652, "(0.0017504987901667685, 0.0, 0.0, 0.0, 0.0017467398534256606, 0.0, 0.0, 0.0, 0.02144579503472266)", 0.00445971923125, -0.000334924070607, 0.000192133406732, "(0.001, 0.0, 0.0, 0.0, 0.001, 0.0, 0.0, 0.0, 0.001)", -0.0127003010662, -0.0644172653818, 0.00580111443265, "(0.001, 0.0, 0.0, 0.0, 0.001, 0.0, 0.0, 0.0, 0.001)"
1637149414124133878, 14139, 1636513330, 859889984, base_link, 0.00190966295337, -0.0163388942519, -0.689773345546, 0.723838466439, "(0.0017504987901667685, 0.0, 0.0, 0.0, 0.0017467398534256606, 0.0, 0.0, 0.0, 0.02144579503472266)", 0.00356941291029, -0.000265459468093, 0.000890304581913, "(0.001, 0.0, 0.0, 0.0, 0.001, 0.0, 0.0, 0.0, 0.001)", -0.235308957672, -0.0827094156889, 0.205299235382, "(0.001, 0.0, 0.0, 0.0, 0.001, 0.0, 0.0, 0.0, 0.001)"
1637149414144638195, 14140, 1636513330, 880563974, base_link, 0.00191988404298, -0.0163394273672, -0.689772085755, 0.723839627868, "(0.0017504987901667685, 0.0, 0.0, 0.0, 0.0017467398534256606, 0.0, 0.0, 0.0, 0.02144579503472266)", 0.00323183745589, -0.000491285394389, 0.000103681970001, "(0.001, 0.0, 0.0, 0.0, 0.001, 0.0, 0.0, 0.0, 0.001)", 0.386764683255, 0.0748417236377, -0.0859471935632, "(0.001, 0.0, 0.0, 0.0, 0.001, 0.0, 0.0, 0.0, 0.001)"
1637149414163777582, 14141, 1636513330, 899756908, base_link, 0.00193186754004, -0.0163512793022, -0.68977562168, 0.723835958825, "(0.0017504987901667685, 0.0, 0.0, 0.0, 0.0017467398534256606, 0.0, 0.0, 0.0, 0.02144579503472266)", 0.00291566403423, 0.000729614490271, 3.55895940656e-05, "(0.001, 0.0, 0.0, 0.0, 0.001, 0.0, 0.0, 0.0, 0.001)", -0.421051732089, -0.0465055784248, 0.307622348149, "(0.001, 0.0, 0.0, 0.0, 0.001, 0.0, 0.0, 0.0, 0.001)"
1637149414184115557, 14142, 1636513330, 919953107, base_link, 0.00194343063997, -0.0163723231223, -0.689769698726, 0.723841096396, "(0.0017504987901667685, 0.0, 0.0, 0.0, 0.0017467398534256606, 0.0, 0.0, 0.0, 0.02144579503472266)", 0.00401457437325, -0.001441250337, 0.000491862266058, "(0.001, 0.0, 0.0, 0.0, 0.001, 0.0, 0.0, 0.0, 0.001)", 0.339662228899, 0.0506273870677, -0.158833778885, "(0.001, 0.0, 0.0, 0.0, 0.001, 0.0, 0.0, 0.0, 0.001)"
1637149414205062422, 14143, 1636513330, 941090106, base_link, 0.00195125830341, -0.0163710976293, -0.689776344372, 0.723834770164, "(0.0017504987901667685, 0.0, 0.0, 0.0, 0.0017467398534256606, 0.0, 0.0, 0.0, 0.02144579503472266)", 0.00252257990111, 0.000824028563282, -0.000305404863909, "(0.001, 0.0, 0.0, 0.0, 0.001, 0.0, 0.0, 0.0, 0.001)", -0.280113307823, 0.0689823403499, 0.388528269683, "(0.001, 0.0, 0.0, 0.0, 0.001, 0.0, 0.0, 0.0, 0.001)"
1637149414223956495, 14144, 1636513330, 959922075, base_link, 0.00196161181448, -0.0163904137102, -0.689770554123, 0.723839822808, "(0.0017504987901667685, 0.0, 0.0, 0.0, 0.0017467398534256606, 0.0, 0.0, 0.0, 0.02144579503472266)", 0.00299762036415, -0.000795962773156, -0.000127086220243, "(0.001, 0.0, 0.0, 0.0, 0.001, 0.0, 0.0, 0.0, 0.001)", 0.187105044805, 0.148157426034, -0.205254606877, "(0.001, 0.0, 0.0, 0.0, 0.001, 0.0, 0.0, 0.0, 0.001)"
1637149414244706739, 14145, 1636513330, 980645895, base_link, 0.00195914903522, -0.0163839813662, -0.689779373034, 0.723831571172, "(0.0017504987901667685, 0.0, 0.0, 0.0, 0.0017467398534256606, 0.0, 0.0, 0.0, 0.02144579503472266)", 0.00121279888644, 0.000145271076861, -0.000596725446869, "(0.001, 0.0, 0.0, 0.0, 0.001, 0.0, 0.0, 0.0, 0.001)", -0.219676781517, 0.118045547912, 0.31282020513, "(0.001, 0.0, 0.0, 0.0, 0.001, 0.0, 0.0, 0.0, 0.001)"
1637149414264127918, 14146, 1636513330, 999963045, base_link, 0.00196770931517, -0.0163907341989, -0.689770556373, 0.723839796856, "(0.0017504987901667685, 0.0, 0.0, 0.0, 0.0017467398534256606, 0.0, 0.0, 0.0, 0.02144579503472266)", 0.00128297552928, 3.6784160075e-05, 0.000500216152275, "(0.001, 0.0, 0.0, 0.0, 0.001, 0.0, 0.0, 0.0, 0.001)", 0.268420947409, 0.00254818409846, -0.181811576347, "(0.001, 0.0, 0.0, 0.0, 0.001, 0.0, 0.0, 0.0, 0.001)"
1637149414284114495, 14147, 1636513331, 20021915, base_link, 0.00196022495604, -0.0163914394375, -0.689775351921, 0.723835231329, "(0.0017504987901667685, 0.0, 0.0, 0.0, 0.0017467398534256606, 0.0, 0.0, 0.0, 0.02144579503472266)", 0.000313115095199, -0.000109961034364, -0.000185614604027, "(0.001, 0.0, 0.0, 0.0, 0.001, 0.0, 0.0, 0.0, 0.001)", -0.238039633495, 0.0813491288571, 0.138847589345, "(0.001, 0.0, 0.0, 0.0, 0.001, 0.0, 0.0, 0.0, 0.001)"
1637149414303671000, 14148, 1636513331, 39611101, base_link, 0.00197471194092, -0.0163979815416, -0.689774709785, 0.723835655695, "(0.0017504987901667685, 0.0, 0.0, 0.0, 0.0017467398534256606, 0.0, 0.0, 0.0, 0.02144579503472266)", 0.00150073660096, -0.000223631277449, -0.000108207481484, "(0.001, 0.0, 0.0, 0.0, 0.001, 0.0, 0.0, 0.0, 0.001)", 0.264391242338, -0.0215850194784, -0.0942454768759, "(0.001, 0.0, 0.0, 0.0, 0.001, 0.0, 0.0, 0.0, 0.001)"
1637149414325065031, 14149, 1636513331, 60760974, base_link, 0.00196121546935, -0.0163929735726, -0.689782119175, 0.72382874502, "(0.0017504987901667685, 0.0, 0.0, 0.0, 0.0017467398534256606, 0.0, 0.0, 0.0, 0.02144579503472266)", -0.000397553122738, 0.000150974425981, -0.00113630788541, "(0.001, 0.0, 0.0, 0.0, 0.001, 0.0, 0.0, 0.0, 0.001)", -0.193184270947, 0.025391044722, 0.0418825818658, "(0.001, 0.0, 0.0, 0.0, 0.001, 0.0, 0.0, 0.0, 0.001)"
1637149414343554455, 14150, 1636513331, 79487085, base_link, 0.00198362559713, -0.0163959219643, -0.689778298147, 0.723832258453, "(0.0017504987901667685, 0.0, 0.0, 0.0, 0.0017467398534256606, 0.0, 0.0, 0.0, 0.02144579503472266)", 0.00171703307907, 0.000780114317765, 9.34633573239e-06, "(0.001, 0.0, 0.0, 0.0, 0.001, 0.0, 0.0, 0.0, 0.001)", 0.221213340069, 0.0105150309391, -0.0268452531209, "(0.001, 0.0, 0.0, 0.0, 0.001, 0.0, 0.0, 0.0, 0.001)"
1637149414363976132, 14151, 1636513331, 99909067, base_link, 0.0019765348611, -0.0163963299244, -0.689783436412, 0.723827372049, "(0.0017504987901667685, 0.0, 0.0, 0.0, 0.0017467398534256606, 0.0, 0.0, 0.0, 0.02144579503472266)", -0.000295162043977, 0.000382117133783, -0.000821559756701, "(0.001, 0.0, 0.0, 0.0, 0.001, 0.0, 0.0, 0.0, 0.001)", -0.174779089226, -0.0237943754628, -0.148886235292, "(0.001, 0.0, 0.0, 0.0, 0.001, 0.0, 0.0, 0.0, 0.001)"
1637149414384793554, 14152, 1636513331, 120666980, base_link, 0.00199656517077, -0.0164005561294, -0.689779215181, 0.723831244, "(0.0017504987901667685, 0.0, 0.0, 0.0, 0.0017467398534256606, 0.0, 0.0, 0.0, 0.02144579503472266)", 0.0023747231184, 0.000597986004105, 0.000599060692299, "(0.001, 0.0, 0.0, 0.0, 0.001, 0.0, 0.0, 0.0, 0.001)", 0.149490018529, -0.0771319378373, 0.0626845066351, "(0.001, 0.0, 0.0, 0.0, 0.001, 0.0, 0.0, 0.0, 0.001)"
1637149414403753262, 14153, 1636513331, 139691114, base_link, 0.00199559232969, -0.0164044297371, -0.689783068278, 0.723827487053, "(0.0017504987901667685, 0.0, 0.0, 0.0, 0.0017467398534256606, 0.0, 0.0, 0.0, 0.02144579503472266)", 0.00068136935046, 0.00077517675149, -0.000818654753235, "(0.001, 0.0, 0.0, 0.0, 0.001, 0.0, 0.0, 0.0, 0.001)", -0.0354570305908, 0.0228153387222, -0.243585641932, "(0.001, 0.0, 0.0, 0.0, 0.001, 0.0, 0.0, 0.0, 0.001)"
1637149414424743232, 14154, 1636513331, 160029888, base_link, 0.00201167846179, -0.0164114400524, -0.689781941457, 0.723828357434, "(0.0017504987901667685, 0.0, 0.0, 0.0, 0.0017467398534256606, 0.0, 0.0, 0.0, 0.02144579503472266)", 0.00264870884259, 0.000774342460665, 0.000302824155588, "(0.001, 0.0, 0.0, 0.0, 0.001, 0.0, 0.0, 0.0, 0.001)", -0.109944689185, 0.0574440372963, 0.232006442066, "(0.001, 0.0, 0.0, 0.0, 0.001, 0.0, 0.0, 0.0, 0.001)"
1637149414445175515, 14155, 1636513331, 181067943, base_link, 0.00201388871445, -0.0164109698631, -0.689785137561, 0.723825316165, "(0.0017504987901667685, 0.0, 0.0, 0.0, 0.0017467398534256606, 0.0, 0.0, 0.0, 0.02144579503472266)", 0.000783588255028, 0.000214159153514, -0.000840821529742, "(0.001, 0.0, 0.0, 0.0, 0.001, 0.0, 0.0, 0.0, 0.001)", 0.157723488725, 0.0921174257024, -0.334548356782, "(0.001, 0.0, 0.0, 0.0, 0.001, 0.0, 0.0, 0.0, 0.001)"
1637149414463634000, 14156, 1636513331, 199485063, base_link, 0.00204994457971, -0.016422677767, -0.689784634552, 0.723825428759, "(0.0017504987901667685, 0.0, 0.0, 0.0, 0.0017467398534256606, 0.0, 0.0, 0.0, 0.02144579503472266)", 0.00486443190465, 0.00217739791163, 8.34831880208e-05, "(0.001, 0.0, 0.0, 0.0, 0.001, 0.0, 0.0, 0.0, 0.001)", -0.24763164069, 0.162524891383, 0.17487014654, "(0.001, 0.0, 0.0, 0.0, 0.001, 0.0, 0.0, 0.0, 0.001)"
1637149414484176835, 14157, 1636513331, 220119953, base_link, 0.00205932237419, -0.01645625628, -0.689791234827, 0.723818349571, "(0.0017504987901667685, 0.0, 0.0, 0.0, 0.0017467398534256606, 0.0, 0.0, 0.0, 0.02144579503472266)", 0.00431209300718, -0.000850807067408, -0.00149014315926, "(0.001, 0.0, 0.0, 0.0, 0.001, 0.0, 0.0, 0.0, 0.001)", 0.215077199673, 0.336352440099, -0.468423821293, "(0.001, 0.0, 0.0, 0.0, 0.001, 0.0, 0.0, 0.0, 0.001)"
1637149414504288610, 14158, 1636513331, 240196943, base_link, 0.00213094952079, -0.0165169092831, -0.689790519045, 0.723817442867, "(0.0017504987901667685, 0.0, 0.0, 0.0, 0.0017467398534256606, 0.0, 0.0, 0.0, 0.02144579503472266)", 0.0149281002967, 2.24608015219e-05, -0.000419006449425, "(0.001, 0.0, 0.0, 0.0, 0.001, 0.0, 0.0, 0.0, 0.001)", -0.235693886983, 0.781134743463, -0.338745476526, "(0.001, 0.0, 0.0, 0.0, 0.001, 0.0, 0.0, 0.0, 0.001)"
1637149414524215759, 14159, 1636513331, 259591102, base_link, 0.00222832644537, -0.0166092182019, -0.689785964831, 0.723819377438, "(0.0017504987901667685, 0.0, 0.0, 0.0, 0.0017467398534256606, 0.0, 0.0, 0.0, 0.02144579503472266)", 0.017551783022, -0.000305200605061, -0.000501541082841, "(0.001, 0.0, 0.0, 0.0, 0.001, 0.0, 0.0, 0.0, 0.001)", 0.368993095403, 1.271825773, -0.809923642062, "(0.001, 0.0, 0.0, 0.0, 0.001, 0.0, 0.0, 0.0, 0.001)"
1637149414543886659, 14160, 1636513331, 279834032, base_link, 0.00231852915458, -0.0166962115444, -0.689805051046, 0.723798903352, "(0.0017504987901667685, 0.0, 0.0, 0.0, 0.0017467398534256606, 0.0, 0.0, 0.0, 0.02144579503472266)", 0.0302442348364, -3.42728109215e-05, -0.00336686532424, "(0.001, 0.0, 0.0, 0.0, 0.001, 0.0, 0.0, 0.0, 0.001)", -0.339517857514, 1.26842195041, -0.105529029384, "(0.001, 0.0, 0.0, 0.0, 0.001, 0.0, 0.0, 0.0, 0.001)"
1637149414568399981, 14161, 1636513331, 304295063, base_link, 0.00247226578681, -0.0168253483131, -0.689791937046, 0.7238079021, "(0.0017504987901667685, 0.0, 0.0, 0.0, 0.0017467398534256606, 0.0, 0.0, 0.0, 0.02144579503472266)", 0.0267382346581, 0.000879645039904, -0.000354070711775, "(0.001, 0.0, 0.0, 0.0, 0.001, 0.0, 0.0, 0.0, 0.001)", 0.496994269247, 0.968793779044, -0.650958215875, "(0.001, 0.0, 0.0, 0.0, 0.001, 0.0, 0.0, 0.0, 0.001)"
1637149414583583448, 14162, 1636513331, 319583892, base_link, 0.00257955452048, -0.0169507678006, -0.689799462957, 0.723797429033, "(0.0017504987901667685, 0.0, 0.0, 0.0, 0.0017467398534256606, 0.0, 0.0, 0.0, 0.02144579503472266)", 0.0422374998303, -0.00092456613414, -0.00106527678428, "(0.001, 0.0, 0.0, 0.0, 0.001, 0.0, 0.0, 0.0, 0.001)", -0.230379273976, 2.03778993707, 0.118727471331, "(0.001, 0.0, 0.0, 0.0, 0.001, 0.0, 0.0, 0.0, 0.001)"
1637149414604602111, 14163, 1636513331, 340404033, base_link, 0.00272017183129, -0.0171010610312, -0.689780893741, 0.723811075493, "(0.0015233935788545733, 0.0, 0.0, 0.0, 0.0015218995180488748, 0.0, 0.0, 0.0, 0.020708395675264946)", 0.029962455716, -0.00131848389543, 0.00137016818776, "(0.001, 0.0, 0.0, 0.0, 0.001, 0.0, 0.0, 0.0, 0.001)", 0.0719965282035, 1.06439582079, -0.266606333543, "(0.001, 0.0, 0.0, 0.0, 0.001, 0.0, 0.0, 0.0, 0.001)"
1637149414626901869, 14164, 1636513331, 362104892, base_link, 0.00272017183129, -0.0171010610312, -0.689780893741, 0.723811075493, "(0.0015233935788545733, 0.0, 0.0, 0.0, 0.0015218995180488748, 0.0, 0.0, 0.0, 0.020708395675264946)", 0.0425345522116, -0.00496923290759, 0.0011777254064, "(0.001, 0.0, 0.0, 0.0, 0.001, 0.0, 0.0, 0.0, 0.001)", 0.214543698182, 2.24328751505, 0.264569401987, "(0.001, 0.0, 0.0, 0.0, 0.001, 0.0, 0.0, 0.0, 0.001)"
1637149414643664029, 14165, 1636513331, 379648923, base_link, 0.00291646208213, -0.0173588323752, -0.689764978997, 0.723819341367, "(0.0015233935788545733, 0.0, 0.0, 0.0, 0.0015218995180488748, 0.0, 0.0, 0.0, 0.020708395675264946)", 0.0258856809426, -0.00336118588637, 0.00208625478008, "(0.001, 0.0, 0.0, 0.0, 0.001, 0.0, 0.0, 0.0, 0.001)", -0.27690782204, 1.24549981742, 0.208872380152, "(0.001, 0.0, 0.0, 0.0, 0.001, 0.0, 0.0, 0.0, 0.001)"
1637149414664534664, 14166, 1636513331, 400542020, base_link, 0.00299827559419, -0.0174449676117, -0.689750315887, 0.723830909248, "(0.0015233935788545733, 0.0, 0.0, 0.0, 0.0015218995180488748, 0.0, 0.0, 0.0, 0.020708395675264946)", 0.0330859770315, -0.00401277157872, 0.00302790403794, "(0.001, 0.0, 0.0, 0.0, 0.001, 0.0, 0.0, 0.0, 0.001)", 0.442746736302, 2.12137750507, 0.357781675441, "(0.001, 0.0, 0.0, 0.0, 0.001, 0.0, 0.0, 0.0, 0.001)"
1637149414685588303, 14167, 1636513331, 421572923, base_link, 0.0030468175365, -0.0175138543679, -0.68974390543, 0.723835151627, "(0.0015233935788545733, 0.0, 0.0, 0.0, 0.0015218995180488748, 0.0, 0.0, 0.0, 0.020708395675264946)", 0.0169324740772, -0.00233348154092, 0.00226085357737, "(0.001, 0.0, 0.0, 0.0, 0.001, 0.0, 0.0, 0.0, 0.001)", -0.230133668518, 1.5254080254, 0.531950184469, "(0.001, 0.0, 0.0, 0.0, 0.001, 0.0, 0.0, 0.0, 0.001)"
1637149414703379898, 14168, 1636513331, 439379930, base_link, 0.00307026671997, -0.0175482703687, -0.689728037137, 0.723849339612, "(0.0015233935788545733, 0.0, 0.0, 0.0, 0.0015218995180488748, 0.0, 0.0, 0.0, 0.020708395675264946)", 0.0149278222194, -0.00180054247788, 0.00336421087706, "(0.001, 0.0, 0.0, 0.0, 0.001, 0.0, 0.0, 0.0, 0.001)", 0.0953689414591, 1.88092193313, 0.443422092549, "(0.001, 0.0, 0.0, 0.0, 0.001, 0.0, 0.0, 0.0, 0.001)"
1637149414725321574, 14169, 1636513331, 461188077, base_link, 0.00308923330616, -0.0175458528786, -0.68973059705, 0.723846878268, "(0.0015233935788545733, 0.0, 0.0, 0.0, 0.0015218995180488748, 0.0, 0.0, 0.0, 0.020708395675264946)", 0.00591423043167, 7.87333135545e-05, 0.0008391037068, "(0.001, 0.0, 0.0, 0.0, 0.001, 0.0, 0.0, 0.0, 0.001)", 0.13469401574, 1.39794581664, 0.516423082949, "(0.001, 0.0, 0.0, 0.0, 0.001, 0.0, 0.0, 0.0, 0.001)"
1637149414746154898, 14170, 1636513331, 481854915, base_link, 0.00307142773469, -0.0175403756695, -0.689720011006, 0.723857173738, "(0.0015233935788545733, 0.0, 0.0, 0.0, 0.0015218995180488748, 0.0, 0.0, 0.0, 0.020708395675264946)", 0.000180333686296, 0.000125643865126, 0.00265707418317, "(0.001, 0.0, 0.0, 0.0, 0.001, 0.0, 0.0, 0.0, 0.001)", -0.318685502553, 1.80528726387, 0.412826137058, "(0.001, 0.0, 0.0, 0.0, 0.001, 0.0, 0.0, 0.0, 0.001)"
1637149414767195329, 14171, 1636513331, 501848936, base_link, 0.0030499767734, -0.0175185172551, -0.689724610834, 0.723853410854, "(0.0015233935788545733, 0.0, 0.0, 0.0, 0.0015218995180488748, 0.0, 0.0, 0.0, 0.020708395675264946)", -0.00372470883374, -0.000472234976562, -0.000373460661696, "(0.001, 0.0, 0.0, 0.0, 0.001, 0.0, 0.0, 0.0, 0.001)", 0.379599872137, 1.2278977807, 0.122845794574, "(0.001, 0.0, 0.0, 0.0, 0.001, 0.0, 0.0, 0.0, 0.001)"
1637149414783731125, 14172, 1636513331, 519546985, base_link, 0.00299688885817, -0.0174693527176, -0.689725404054, 0.723854064971, "(0.0015233935788545733, 0.0, 0.0, 0.0, 0.0015218995180488748, 0.0, 0.0, 0.0, 0.020708395675264946)", -0.011093707583, 0.000135797056968, 0.000433318167931, "(0.001, 0.0, 0.0, 0.0, 0.001, 0.0, 0.0, 0.0, 0.001)", -0.18078863564, 1.68643682593, 0.297574014209, "(0.001, 0.0, 0.0, 0.0, 0.001, 0.0, 0.0, 0.0, 0.001)"
1637149414805465629, 14173, 1636513331, 541431903, base_link, 0.00297475455857, -0.0174450424332, -0.68971899923, 0.72386084535, "(0.0015233935788545733, 0.0, 0.0, 0.0, 0.0015218995180488748, 0.0, 0.0, 0.0, 0.020708395675264946)", -0.00753402391778, 3.8120284995e-05, 0.000491129392135, "(0.001, 0.0, 0.0, 0.0, 0.001, 0.0, 0.0, 0.0, 0.001)", 0.20846994391, 1.07928357099, -0.0771567156304, "(0.001, 0.0, 0.0, 0.0, 0.001, 0.0, 0.0, 0.0, 0.001)"
1637149414823962566, 14174, 1636513331, 559334993, base_link, 0.00291664910372, -0.0174023780589, -0.689729678704, 0.723851932864, "(0.0015233935788545733, 0.0, 0.0, 0.0, 0.0015218995180488748, 0.0, 0.0, 0.0, 0.020708395675264946)", -0.013413133934, -0.00148832345866, -0.00106604304172, "(0.001, 0.0, 0.0, 0.0, 0.001, 0.0, 0.0, 0.0, 0.001)", 0.0989915017949, 1.59783940598, 0.0037525265304, "(0.001, 0.0, 0.0, 0.0, 0.001, 0.0, 0.0, 0.0, 0.001)"
1637149414845157501, 14175, 1636513331, 581064939, base_link, 0.00288665668006, -0.0173710204242, -0.689718951266, 0.723863027877, "(0.0015233935788545733, 0.0, 0.0, 0.0, 0.0015218995180488748, 0.0, 0.0, 0.0, 0.020708395675264946)", -0.00800224905618, 0.000390060900451, 0.00133911949146, "(0.001, 0.0, 0.0, 0.0, 0.001, 0.0, 0.0, 0.0, 0.001)", -0.101953833268, 0.835927609695, -0.0313230939284, "(0.001, 0.0, 0.0, 0.0, 0.001, 0.0, 0.0, 0.0, 0.001)"
1637149414863482690, 14176, 1636513331, 599442958, base_link, 0.00285579282062, -0.0173357743481, -0.689724456795, 0.723858749394, "(0.0015233935788545733, 0.0, 0.0, 0.0, 0.0015218995180488748, 0.0, 0.0, 0.0, 0.020708395675264946)", -0.0122159243042, -4.03103974745e-05, -0.000292722494116, "(0.001, 0.0, 0.0, 0.0, 0.001, 0.0, 0.0, 0.0, 0.001)", 0.337823865074, 1.51002201528, -0.290058158301, "(0.001, 0.0, 0.0, 0.0, 0.001, 0.0, 0.0, 0.0, 0.001)"
1637149414883571189, 14177, 1636513331, 619466066, base_link, 0.0028216919404, -0.0173097275648, -0.689724318453, 0.723859638273, "(0.0015233935788545733, 0.0, 0.0, 0.0, 0.0015218995180488748, 0.0, 0.0, 0.0, 0.020708395675264946)", -0.00643092961491, 0.000200930966787, 0.0004942802328, "(0.001, 0.0, 0.0, 0.0, 0.001, 0.0, 0.0, 0.0, 0.001)", -0.292196622563, 0.879472228206, 0.0962532845974, "(0.001, 0.0, 0.0, 0.0, 0.001, 0.0, 0.0, 0.0, 0.001)"
1637149414904871393, 14178, 1636513331, 640677928, base_link, 0.00282357042858, -0.0172713099947, -0.689715426844, 0.7238690208, "(0.0015233935788545733, 0.0, 0.0, 0.0, 0.0015218995180488748, 0.0, 0.0, 0.0, 0.020708395675264946)", -0.00882422199783, 0.00352394009299, 0.0013602277648, "(0.001, 0.0, 0.0, 0.0, 0.001, 0.0, 0.0, 0.0, 0.001)", 0.461885377234, 1.44029014899, -0.406921166013, "(0.001, 0.0, 0.0, 0.0, 0.001, 0.0, 0.0, 0.0, 0.001)"
1637149414925402949, 14179, 1636513331, 661398887, base_link, 0.00280042897494, -0.0172470021991, -0.68972005955, 0.723865276117, "(0.0015233935788545733, 0.0, 0.0, 0.0, 0.0015218995180488748, 0.0, 0.0, 0.0, 0.020708395675264946)", -0.00485105649425, 0.00128001934355, 0.000228866685749, "(0.001, 0.0, 0.0, 0.0, 0.001, 0.0, 0.0, 0.0, 0.001)", -0.247141478922, 0.913208443469, 0.0865506271076, "(0.001, 0.0, 0.0, 0.0, 0.001, 0.0, 0.0, 0.0, 0.001)"
1637149414945531481, 14180, 1636513331, 681454896, base_link, 0.00281859755973, -0.0172191239861, -0.6897015446, 0.723883510417, "(0.0015233935788545733, 0.0, 0.0, 0.0, 0.0015218995180488748, 0.0, 0.0, 0.0, 0.020708395675264946)", -0.00458932905348, 0.00540563283935, 0.00331709112879, "(0.001, 0.0, 0.0, 0.0, 0.001, 0.0, 0.0, 0.0, 0.001)", 0.327501176384, 1.38189098606, -0.250055346531, "(0.001, 0.0, 0.0, 0.0, 0.001, 0.0, 0.0, 0.0, 0.001)"
1637149414964659325, 14181, 1636513331, 700602054, base_link, 0.00282070124079, -0.0171751398219, -0.689704138754, 0.723882075481, "(0.0015233935788545733, 0.0, 0.0, 0.0, 0.0015218995180488748, 0.0, 0.0, 0.0, 0.020708395675264946)", -0.00346538401181, 0.00446572778667, 0.000530154744986, "(0.001, 0.0, 0.0, 0.0, 0.001, 0.0, 0.0, 0.0, 0.001)", 0.113705818555, 0.982614721219, -0.0686309571815, "(0.001, 0.0, 0.0, 0.0, 0.001, 0.0, 0.0, 0.0, 0.001)"
1637149414983631671, 14182, 1636513331, 719610929, base_link, 0.0028295726613, -0.0171647002294, -0.689690323436, 0.723895451252, "(0.0015233935788545733, 0.0, 0.0, 0.0, 0.0015218995180488748, 0.0, 0.0, 0.0, 0.020708395675264946)", -0.0024730812241, 0.00538943453349, 0.00339798054223, "(0.001, 0.0, 0.0, 0.0, 0.001, 0.0, 0.0, 0.0, 0.001)", -0.102794777092, 1.34305351667, -0.00089224291855, "(0.001, 0.0, 0.0, 0.0, 0.001, 0.0, 0.0, 0.0, 0.001)"
1637149415005862054, 14183, 1636513331, 741832017, base_link, 0.0028295726613, -0.0171647002294, -0.689690323436, 0.723895451252, "(0.0015233935788545733, 0.0, 0.0, 0.0, 0.0015218995180488748, 0.0, 0.0, 0.0, 0.020708395675264946)", -0.00498962017625, 0.00556971638022, 0.00144929189692, "(0.001, 0.0, 0.0, 0.0, 0.001, 0.0, 0.0, 0.0, 0.001)", 0.589098508068, 1.06998299326, -0.0913517975536, "(0.001, 0.0, 0.0, 0.0, 0.001, 0.0, 0.0, 0.0, 0.001)"
1637149415025079750, 14184, 1636513331, 761109113, base_link, 0.00285004480192, -0.0170662133927, -0.689682405826, 0.723905242901, "(0.0015233935788545733, 0.0, 0.0, 0.0, 0.0015218995180488748, 0.0, 0.0, 0.0, 0.020708395675264946)", -0.0042423919663, 0.00974673710906, 0.00188883274923, "(0.001, 0.0, 0.0, 0.0, 0.001, 0.0, 0.0, 0.0, 0.001)", -0.459499809617, 1.4946871103, 0.187926778007, "(0.001, 0.0, 0.0, 0.0, 0.001, 0.0, 0.0, 0.0, 0.001)"
1637149415043792988, 14185, 1636513331, 779684066, base_link, 0.00287030386996, -0.0170186600858, -0.689666835264, 0.723921116491, "(0.0015233935788545733, 0.0, 0.0, 0.0, 0.0015218995180488748, 0.0, 0.0, 0.0, 0.020708395675264946)", -0.00385397573586, 0.00687211724601, 0.00191156399742, "(0.001, 0.0, 0.0, 0.0, 0.001, 0.0, 0.0, 0.0, 0.001)", 0.556290952861, 0.982774446668, -0.219120918265, "(0.001, 0.0, 0.0, 0.0, 0.001, 0.0, 0.0, 0.0, 0.001)"
1637149415064626029, 14186, 1636513331, 800502061, base_link, 0.00286517945363, -0.0169501783779, -0.689670584108, 0.723919172019, "(0.0015233935788545733, 0.0, 0.0, 0.0, 0.0015218995180488748, 0.0, 0.0, 0.0, 0.020708395675264946)", -0.00784452245083, 0.0113565795992, 0.00128000183615, "(0.001, 0.0, 0.0, 0.0, 0.001, 0.0, 0.0, 0.0, 0.001)", -0.28424691914, 1.46571246653, 0.0882890281966, "(0.001, 0.0, 0.0, 0.0, 0.001, 0.0, 0.0, 0.0, 0.001)"
1637149415084229130, 14187, 1636513331, 820224046, base_link, 0.00288685121024, -0.0169246007129, -0.689658189544, 0.723931492322, "(0.0015233935788545733, 0.0, 0.0, 0.0, 0.0015218995180488748, 0.0, 0.0, 0.0, 0.020708395675264946)", -0.00313983116962, 0.00590632223312, 0.00185971539363, "(0.001, 0.0, 0.0, 0.0, 0.001, 0.0, 0.0, 0.0, 0.001)", 0.0895639983127, 0.87253463146, -0.172199520508, "(0.001, 0.0, 0.0, 0.0, 0.001, 0.0, 0.0, 0.0, 0.001)"
1637149415103600249, 14188, 1636513331, 839478969, base_link, 0.00287810665126, -0.0168829473902, -0.689666639979, 0.723924449297, "(0.0015233935788545733, 0.0, 0.0, 0.0, 0.0015218995180488748, 0.0, 0.0, 0.0, 0.020708395675264946)", -0.00607189853775, 0.00657027370748, -0.000357188886429, "(0.001, 0.0, 0.0, 0.0, 0.001, 0.0, 0.0, 0.0, 0.001)", 0.143647974551, 1.50907976876, -0.0250623611324, "(0.001, 0.0, 0.0, 0.0, 0.001, 0.0, 0.0, 0.0, 0.001)"
1637149415124148128, 14189, 1636513331, 859924077, base_link, 0.00289938182487, -0.0168430298913, -0.689652925771, 0.723938359188, "(0.0015233935788545733, 0.0, 0.0, 0.0, 0.0015218995180488748, 0.0, 0.0, 0.0, 0.020708395675264946)", -0.00305109083448, 0.00686571162518, 0.00211529632009, "(0.001, 0.0, 0.0, 0.0, 0.001, 0.0, 0.0, 0.0, 0.001)", -0.260139561969, 0.853219837391, -0.0297609565666, "(0.001, 0.0, 0.0, 0.0, 0.001, 0.0, 0.0, 0.0, 0.001)"
1637149415145329246, 14190, 1636513331, 881211996, base_link, 0.00289421103424, -0.0168135916509, -0.689649033725, 0.723942771882, "(0.0015233935788545733, 0.0, 0.0, 0.0, 0.0015218995180488748, 0.0, 0.0, 0.0, 0.020708395675264946)", -0.00538281028698, 0.00596909539851, 0.0016500564934, "(0.001, 0.0, 0.0, 0.0, 0.001, 0.0, 0.0, 0.0, 0.001)", 0.290363169049, 1.50775118688, -0.229183224226, "(0.001, 0.0, 0.0, 0.0, 0.001, 0.0, 0.0, 0.0, 0.001)"
1637149415163560177, 14191, 1636513331, 899498939, base_link, 0.0029023417935, -0.0167814931511, -0.68964720965, 0.723945221769, "(0.0015233935788545733, 0.0, 0.0, 0.0, 0.0015218995180488748, 0.0, 0.0, 0.0, 0.020708395675264946)", -0.00230440129695, 0.00497328483262, 0.00123202527224, "(0.001, 0.0, 0.0, 0.0, 0.001, 0.0, 0.0, 0.0, 0.001)", -0.421362472785, 0.981591618754, 0.131779180938, "(0.001, 0.0, 0.0, 0.0, 0.001, 0.0, 0.0, 0.0, 0.001)"
1637149415183317020, 14192, 1636513331, 919282913, base_link, 0.00292050323637, -0.0167615611627, -0.68962379825, 0.723967912007, "(0.0015233935788545733, 0.0, 0.0, 0.0, 0.0015218995180488748, 0.0, 0.0, 0.0, 0.020708395675264946)", -0.00287552846905, 0.00621276466989, 0.00428402222721, "(0.001, 0.0, 0.0, 0.0, 0.001, 0.0, 0.0, 0.0, 0.001)", 0.385258776647, 1.35798875396, -0.346418517649, "(0.001, 0.0, 0.0, 0.0, 0.001, 0.0, 0.0, 0.0, 0.001)"
1637149415206451643, 14193, 1636513331, 942161083, base_link, 0.00292048051662, -0.0167516331696, -0.689618750455, 0.723972950186, "(0.0015233935788545733, 0.0, 0.0, 0.0, 0.0015218995180488748, 0.0, 0.0, 0.0, 0.020708395675264946)", -0.000256611348303, 0.00244669524204, 0.00253521907573, "(0.001, 0.0, 0.0, 0.0, 0.001, 0.0, 0.0, 0.0, 0.001)", -0.4639546693, 1.05105871312, 0.217352112323, "(0.001, 0.0, 0.0, 0.0, 0.001, 0.0, 0.0, 0.0, 0.001)"
1637149415224556818, 14194, 1636513331, 959817886, base_link, 0.0029442102195, -0.0167153154212, -0.689595342511, 0.723995989936, "(0.0015233935788545733, 0.0, 0.0, 0.0, 0.0015218995180488748, 0.0, 0.0, 0.0, 0.020708395675264946)", -0.00253866088131, 0.00709660083308, 0.00510541976417, "(0.001, 0.0, 0.0, 0.0, 0.001, 0.0, 0.0, 0.0, 0.001)", 0.428584439386, 1.61822582738, -0.207286691985, "(0.001, 0.0, 0.0, 0.0, 0.001, 0.0, 0.0, 0.0, 0.001)"
1637149415244352789, 14195, 1636513331, 980300903, base_link, 0.00293549677948, -0.0166681563132, -0.689592243531, 0.724000064285, "(0.0015233935788545733, 0.0, 0.0, 0.0, 0.0015218995180488748, 0.0, 0.0, 0.0, 0.020708395675264946)", -0.00327188488147, 0.0050278688018, 0.00219468503247, "(0.001, 0.0, 0.0, 0.0, 0.001, 0.0, 0.0, 0.0, 0.001)", -0.142154098518, 1.01572653671, 0.102168461186, "(0.001, 0.0, 0.0, 0.0, 0.001, 0.0, 0.0, 0.0, 0.001)"
1637149415263572233, 14196, 1636513331, 999495029, base_link, 0.00296030218658, -0.016648240414, -0.689572091968, 0.724019614845, "(0.0015233935788545733, 0.0, 0.0, 0.0, 0.0015218995180488748, 0.0, 0.0, 0.0, 0.020708395675264946)", -0.00236799743265, 0.00727861246542, 0.00526792281196, "(0.001, 0.0, 0.0, 0.0, 0.001, 0.0, 0.0, 0.0, 0.001)", -0.0320780190937, 1.44450339745, -0.0863684911808, "(0.001, 0.0, 0.0, 0.0, 0.001, 0.0, 0.0, 0.0, 0.001)"
1637149415284530961, 14197, 1636513332, 20380020, base_link, 0.00295664978235, -0.0165922186769, -0.689562761871, 0.724029801833, "(0.0015233935788545733, 0.0, 0.0, 0.0, 0.0015218995180488748, 0.0, 0.0, 0.0, 0.020708395675264946)", -0.00488201501187, 0.00561884403716, 0.00222050805456, "(0.001, 0.0, 0.0, 0.0, 0.001, 0.0, 0.0, 0.0, 0.001)", 0.424564859585, 1.1395664591, -0.0629968326375, "(0.001, 0.0, 0.0, 0.0, 0.001, 0.0, 0.0, 0.0, 0.001)"
1637149415304505943, 14198, 1636513332, 40230989, base_link, 0.00297186487544, -0.0165589524685, -0.689553240202, 0.724039569388, "(0.0015233935788545733, 0.0, 0.0, 0.0, 0.0015218995180488748, 0.0, 0.0, 0.0, 0.020708395675264946)", -0.00455184880318, 0.00903959675174, 0.0041268560533, "(0.001, 0.0, 0.0, 0.0, 0.001, 0.0, 0.0, 0.0, 0.001)", -0.410176383974, 1.43974133661, 0.154250481142, "(0.001, 0.0, 0.0, 0.0, 0.001, 0.0, 0.0, 0.0, 0.001)"
1637149415325019020, 14199, 1636513332, 60587882, base_link, 0.00298769449052, -0.0165157837043, -0.689533319626, 0.724059461437, "(0.0015233935788545733, 0.0, 0.0, 0.0, 0.0015218995180488748, 0.0, 0.0, 0.0, 0.020708395675264946)", -0.00354772515261, 0.00567515344966, 0.00303897522584, "(0.001, 0.0, 0.0, 0.0, 0.001, 0.0, 0.0, 0.0, 0.001)", 0.681265118463, 1.01156661372, -0.266458580294, "(0.001, 0.0, 0.0, 0.0, 0.001, 0.0, 0.0, 0.0, 0.001)"
1637149415343559406, 14200, 1636513332, 79369068, base_link, 0.00301146320838, -0.0164535235923, -0.689530721063, 0.724063255083, "(0.0015233935788545733, 0.0, 0.0, 0.0, 0.0015218995180488748, 0.0, 0.0, 0.0, 0.020708395675264946)", -0.00418842647975, 0.0129146810108, 0.00352089171577, "(0.001, 0.0, 0.0, 0.0, 0.001, 0.0, 0.0, 0.0, 0.001)", -0.176633369466, 1.52809503202, 0.244034883262, "(0.001, 0.0, 0.0, 0.0, 0.001, 0.0, 0.0, 0.0, 0.001)"
1637149415364115276, 14201, 1636513332, 100049018, base_link, 0.00304505460654, -0.0164158687992, -0.68950707765, 0.724086484313, "(0.0015233935788545733, 0.0, 0.0, 0.0, 0.0015218995180488748, 0.0, 0.0, 0.0, 0.020708395675264946)", -0.00227975672582, 0.00828737443431, 0.00330881728201, "(0.001, 0.0, 0.0, 0.0, 0.001, 0.0, 0.0, 0.0, 0.001)", 0.305981638154, 0.934532502795, -0.258184856294, "(0.001, 0.0, 0.0, 0.0, 0.001, 0.0, 0.0, 0.0, 0.001)"
1637149415384556436, 14202, 1636513332, 120507001, base_link, 0.00304944521574, -0.0163561684124, -0.689506548617, 0.724088320617, "(0.0015233935788545733, 0.0, 0.0, 0.0, 0.0015218995180488748, 0.0, 0.0, 0.0, 0.020708395675264946)", -0.0050021970824, 0.011491559312, 0.00315517931305, "(0.001, 0.0, 0.0, 0.0, 0.001, 0.0, 0.0, 0.0, 0.001)", 0.0618259015814, 1.47714190802, 0.044769425436, "(0.001, 0.0, 0.0, 0.0, 0.001, 0.0, 0.0, 0.0, 0.001)"
1637149415404102361, 14203, 1636513332, 139898061, base_link, 0.00307997858262, -0.0163168257137, -0.68947841781, 0.724115865249, "(0.0015233935788545733, 0.0, 0.0, 0.0, 0.0015218995180488748, 0.0, 0.0, 0.0, 0.020708395675264946)", -0.00311115617844, 0.00824786012099, 0.00445928752007, "(0.001, 0.0, 0.0, 0.0, 0.001, 0.0, 0.0, 0.0, 0.001)", -0.0679108002263, 0.911752391071, -0.129558716179, "(0.001, 0.0, 0.0, 0.0, 0.001, 0.0, 0.0, 0.0, 0.001)"
1637149415424218714, 14204, 1636513332, 159358024, base_link, 0.00307600479315, -0.0162824467376, -0.689469527809, 0.724125120642, "(0.0015233935788545733, 0.0, 0.0, 0.0, 0.0015218995180488748, 0.0, 0.0, 0.0, 0.020708395675264946)", -0.00474264393944, 0.00801043287246, 0.00461735335484, "(0.001, 0.0, 0.0, 0.0, 0.001, 0.0, 0.0, 0.0, 0.001)", 0.165282614196, 1.64573602939, -0.0956260738213, "(0.001, 0.0, 0.0, 0.0, 0.001, 0.0, 0.0, 0.0, 0.001)"
1637149415446873273, 14205, 1636513332, 182234048, base_link, 0.00307600479315, -0.0162824467376, -0.689469527809, 0.724125120642, "(0.0015233935788545733, 0.0, 0.0, 0.0, 0.0015218995180488748, 0.0, 0.0, 0.0, 0.020708395675264946)", -0.00310233618194, 0.00654434154292, 0.00364389262741, "(0.001, 0.0, 0.0, 0.0, 0.001, 0.0, 0.0, 0.0, 0.001)", -0.390641148333, 1.01726940755, 0.085850043451, "(0.001, 0.0, 0.0, 0.0, 0.001, 0.0, 0.0, 0.0, 0.001)"
1637149415463480794, 14206, 1636513332, 199362993, base_link, 0.00308524126558, -0.0161960530041, -0.689436602144, 0.724158367194, "(0.0015233935788545733, 0.0, 0.0, 0.0, 0.0015218995180488748, 0.0, 0.0, 0.0, 0.020708395675264946)", -0.00770363177, 0.00741457861292, 0.00477960465923, "(0.001, 0.0, 0.0, 0.0, 0.001, 0.0, 0.0, 0.0, 0.001)", 0.342116893724, 1.47545777688, -0.231690743705, "(0.001, 0.0, 0.0, 0.0, 0.001, 0.0, 0.0, 0.0, 0.001)"
1637149415484655577, 14207, 1636513332, 220604896, base_link, 0.00308156875031, -0.0161490160007, -0.689429834639, 0.724165876251, "(0.0015233935788545733, 0.0, 0.0, 0.0, 0.0015218995180488748, 0.0, 0.0, 0.0, 0.020708395675264946)", -0.00411532274778, 0.00507576609151, 0.00308995361989, "(0.001, 0.0, 0.0, 0.0, 0.001, 0.0, 0.0, 0.0, 0.001)", -0.597289632777, 1.08049717119, 0.177488588028, "(0.001, 0.0, 0.0, 0.0, 0.001, 0.0, 0.0, 0.0, 0.001)"
1637149415504611645, 14208, 1636513332, 240596055, base_link, 0.003098822471, -0.0160790639893, -0.689415716483, 0.724180799847, "(0.0015233935788545733, 0.0, 0.0, 0.0, 0.0015218995180488748, 0.0, 0.0, 0.0, 0.020708395675264946)", -0.00892433337404, 0.0113359116141, 0.00367000025532, "(0.001, 0.0, 0.0, 0.0, 0.001, 0.0, 0.0, 0.0, 0.001)", 0.534083336989, 1.62052567867, -0.0925070803945, "(0.001, 0.0, 0.0, 0.0, 0.001, 0.0, 0.0, 0.0, 0.001)"
1637149415523926170, 14209, 1636513332, 259532928, base_link, 0.0030947659541, -0.0160118339113, -0.689414980372, 0.724183007559, "(0.0015233935788545733, 0.0, 0.0, 0.0, 0.0015218995180488748, 0.0, 0.0, 0.0, 0.020708395675264946)", -0.00677473725904, 0.00822247476759, 0.00165183028104, "(0.001, 0.0, 0.0, 0.0, 0.001, 0.0, 0.0, 0.0, 0.001)", -0.407149291937, 1.07251615959, 0.135859328842, "(0.001, 0.0, 0.0, 0.0, 0.001, 0.0, 0.0, 0.0, 0.001)"
1637149415544272189, 14210, 1636513332, 280184030, base_link, 0.00310361353952, -0.0159495450541, -0.68939904612, 0.724199513121, "(0.0015233935788545733, 0.0, 0.0, 0.0, 0.0015218995180488748, 0.0, 0.0, 0.0, 0.020708395675264946)", -0.00965789429072, 0.0118334070811, 0.004060434026, "(0.001, 0.0, 0.0, 0.0, 0.001, 0.0, 0.0, 0.0, 0.001)", 0.053084899236, 1.45866176839, -0.0165120307685, "(0.001, 0.0, 0.0, 0.0, 0.001, 0.0, 0.0, 0.0, 0.001)"
1637149415569291039, 14211, 1636513332, 303786039, base_link, 0.00308745985298, -0.0158843530209, -0.689394370808, 0.72420546561, "(0.0015233935788545733, 0.0, 0.0, 0.0, 0.0015218995180488748, 0.0, 0.0, 0.0, 0.020708395675264946)", -0.0079577804958, 0.0067656564144, 0.00140186764253, "(0.001, 0.0, 0.0, 0.0, 0.001, 0.0, 0.0, 0.0, 0.001)", 0.0806320900138, 1.02913542172, -0.116746369967, "(0.001, 0.0, 0.0, 0.0, 0.001, 0.0, 0.0, 0.0, 0.001)"
1637149415585242362, 14212, 1636513332, 321192026, base_link, 0.00307509882986, -0.0158521521496, -0.689383011344, 0.72421703702, "(0.0015985512676499614, 0.0, 0.0, 0.0, 0.0015965694358494181, 0.0, 0.0, 0.0, 0.02081690803404279)", -0.00930605672786, 0.00712557638732, 0.00407808667219, "(0.001, 0.0, 0.0, 0.0, 0.001, 0.0, 0.0, 0.0, 0.001)", -0.579625250465, 1.43374087631, 0.0883683739105, "(0.001, 0.0, 0.0, 0.0, 0.001, 0.0, 0.0, 0.0, 0.001)"
1637149415604710922, 14213, 1636513332, 340594053, base_link, 0.00303999075728, -0.0158158641506, -0.689362474627, 0.724237526971, "(0.0013431674884790135, 0.0, 0.0, 0.0, 0.001341814552968723, 0.0, 0.0, 0.0, 0.02080733755987496)", -0.00810523271877, 0.000904088837988, 0.00305668673284, "(0.001, 0.0, 0.0, 0.0, 0.001, 0.0, 0.0, 0.0, 0.001)", 0.617255625525, 0.933093108038, -0.144486727035, "(0.001, 0.0, 0.0, 0.0, 0.001, 0.0, 0.0, 0.0, 0.001)"
1637149415628410631, 14214, 1636513332, 363118886, base_link, 0.00301045045693, -0.0157880157276, -0.689348284434, 0.724251764579, "(0.0013431674884790135, 0.0, 0.0, 0.0, 0.001341814552968723, 0.0, 0.0, 0.0, 0.02080733755987496)", -0.00964954753202, 0.00151474316858, 0.00569606076595, "(0.001, 0.0, 0.0, 0.0, 0.001, 0.0, 0.0, 0.0, 0.001)", -0.457987093032, 1.50526996682, 0.222726240704, "(0.001, 0.0, 0.0, 0.0, 0.001, 0.0, 0.0, 0.0, 0.001)"
1637149415643982908, 14215, 1636513332, 379609107, base_link, 0.00297568780767, -0.0157502712955, -0.689321745683, 0.724277988872, "(0.0013431674884790135, 0.0, 0.0, 0.0, 0.001341814552968723, 0.0, 0.0, 0.0, 0.02080733755987496)", -0.00844370120403, -0.000115714995587, 0.00451702151034, "(0.001, 0.0, 0.0, 0.0, 0.001, 0.0, 0.0, 0.0, 0.001)", 0.422090193483, 0.893288940453, -0.18763166139, "(0.001, 0.0, 0.0, 0.0, 0.001, 0.0, 0.0, 0.0, 0.001)"
1637149415663907823, 14216, 1636513332, 399812936, base_link, 0.00294986547279, -0.0157073948989, -0.689309386289, 0.724290788298, "(0.0013431674884790135, 0.0, 0.0, 0.0, 0.001341814552968723, 0.0, 0.0, 0.0, 0.02080733755987496)", -0.0107013589002, 0.00168719266328, 0.00649551156873, "(0.001, 0.0, 0.0, 0.0, 0.001, 0.0, 0.0, 0.0, 0.001)", 0.0263542275951, 1.3613448426, 0.120124187064, "(0.001, 0.0, 0.0, 0.0, 0.001, 0.0, 0.0, 0.0, 0.001)"
1637149415685703119, 14217, 1636513332, 421683073, base_link, 0.00296274224998, -0.0156673518589, -0.689284744582, 0.724315053779, "(0.0013431674884790135, 0.0, 0.0, 0.0, 0.001341814552968723, 0.0, 0.0, 0.0, 0.02080733755987496)", -0.00523585477973, 0.00473665994917, 0.00459202030347, "(0.001, 0.0, 0.0, 0.0, 0.001, 0.0, 0.0, 0.0, 0.001)", 0.185429269454, 0.846219691278, -0.220849270783, "(0.001, 0.0, 0.0, 0.0, 0.001, 0.0, 0.0, 0.0, 0.001)"
1637149415703705086, 14218, 1636513332, 439584016, base_link, 0.0029692171336, -0.0156201513946, -0.689283260137, 0.724317459347, "(0.0013431674884790135, 0.0, 0.0, 0.0, 0.001341814552968723, 0.0, 0.0, 0.0, 0.02080733755987496)", -0.00710679435906, 0.00800317916353, 0.00354442882689, "(0.001, 0.0, 0.0, 0.0, 0.001, 0.0, 0.0, 0.0, 0.001)", 0.156941172144, 1.24961572273, -0.183189598927, "(0.001, 0.0, 0.0, 0.0, 0.001, 0.0, 0.0, 0.0, 0.001)"
1637149415724883341, 14219, 1636513332, 460653066, base_link, 0.00299240962072, -0.0155910667414, -0.689273160195, 0.724327601819, "(0.0013431674884790135, 0.0, 0.0, 0.0, 0.001341814552968723, 0.0, 0.0, 0.0, 0.02080733755987496)", -0.00172830400709, 0.00615585145454, 0.00249426715353, "(0.001, 0.0, 0.0, 0.0, 0.001, 0.0, 0.0, 0.0, 0.001)", -0.304022623137, 0.833879894412, -0.0301076620578, "(0.001, 0.0, 0.0, 0.0, 0.001, 0.0, 0.0, 0.0, 0.001)"
1637149415744935482, 14220, 1636513332, 480855941, base_link, 0.00300281112752, -0.0155759799244, -0.68927125766, 0.724329693813, "(0.0013431674884790135, 0.0, 0.0, 0.0, 0.001341814552968723, 0.0, 0.0, 0.0, 0.02080733755987496)", -0.00211484391929, 0.00645033476236, 0.000922060383146, "(0.001, 0.0, 0.0, 0.0, 0.001, 0.0, 0.0, 0.0, 0.001)", 0.19620854489, 1.18114918865, -0.409852183512, "(0.001, 0.0, 0.0, 0.0, 0.001, 0.0, 0.0, 0.0, 0.001)"
1637149415763749880, 14221, 1636513332, 499703884, base_link, 0.00302230161319, -0.0155926001163, -0.689278237757, 0.724322612838, "(0.0013431674884790135, 0.0, 0.0, 0.0, 0.001341814552968723, 0.0, 0.0, 0.0, 0.02080733755987496)", 0.00283598327738, 0.00167934884264, 0.00029494861632, "(0.001, 0.0, 0.0, 0.0, 0.001, 0.0, 0.0, 0.0, 0.001)", -0.785597838772, 0.80872039886, -0.0437515581986, "(0.001, 0.0, 0.0, 0.0, 0.001, 0.0, 0.0, 0.0, 0.001)"
1637149415784104101, 14222, 1636513332, 520159959, base_link, 0.00308110320446, -0.0155809964604, -0.689290140892, 0.724311287377, "(0.0013431674884790135, 0.0, 0.0, 0.0, 0.001341814552968723, 0.0, 0.0, 0.0, 0.02080733755987496)", 0.00632209952897, 0.00614618747862, -0.00366019689515, "(0.001, 0.0, 0.0, 0.0, 0.001, 0.0, 0.0, 0.0, 0.001)", 0.49254317974, 1.29621093706, -0.231717391219, "(0.001, 0.0, 0.0, 0.0, 0.001, 0.0, 0.0, 0.0, 0.001)"
1637149415806820495, 14223, 1636513332, 542764902, base_link, 0.00311388746595, -0.0155856762288, -0.689309759685, 0.724292375774, "(0.0013431674884790135, 0.0, 0.0, 0.0, 0.001341814552968723, 0.0, 0.0, 0.0, 0.02080733755987496)", 0.00442498970069, 0.00468600746083, -0.00303938283771, "(0.001, 0.0, 0.0, 0.0, 0.001, 0.0, 0.0, 0.0, 0.001)", -0.390285620491, 0.663221726586, 0.247548611581, "(0.001, 0.0, 0.0, 0.0, 0.001, 0.0, 0.0, 0.0, 0.001)"
1637149415824698321, 14224, 1636513332, 560314893, base_link, 0.00315945551018, -0.0156023851305, -0.689312894332, 0.724288835429, "(0.0013431674884790135, 0.0, 0.0, 0.0, 0.001341814552968723, 0.0, 0.0, 0.0, 0.02080733755987496)", 0.00854465870203, 0.00554626413889, -0.00350575557515, "(0.001, 0.0, 0.0, 0.0, 0.001, 0.0, 0.0, 0.0, 0.001)", -0.0469965503373, 1.3887008639, -0.128808588554, "(0.001, 0.0, 0.0, 0.0, 0.001, 0.0, 0.0, 0.0, 0.001)"
1637149415844831854, 14225, 1636513332, 580789089, base_link, 0.00315097017007, -0.0156282719537, -0.689329317618, 0.724272683714, "(0.0013431674884790135, 0.0, 0.0, 0.0, 0.001341814552968723, 0.0, 0.0, 0.0, 0.02080733755987496)", 0.00435138627366, -0.00122035779711, -0.00301211388279, "(0.001, 0.0, 0.0, 0.0, 0.001, 0.0, 0.0, 0.0, 0.001)", -0.357345156085, 0.89771350803, -0.00415414808682, "(0.001, 0.0, 0.0, 0.0, 0.001, 0.0, 0.0, 0.0, 0.001)"
1637149415863350613, 14226, 1636513332, 599360942, base_link, 0.0031643925767, -0.0157244223972, -0.689309238618, 0.724289653879, "(0.0013431674884790135, 0.0, 0.0, 0.0, 0.001341814552968723, 0.0, 0.0, 0.0, 0.02080733755987496)", 0.0117765702395, -0.00933601680685, 0.00180778876913, "(0.001, 0.0, 0.0, 0.0, 0.001, 0.0, 0.0, 0.0, 0.001)", -0.459352599385, 0.742916221192, -0.162850494364, "(0.001, 0.0, 0.0, 0.0, 0.001, 0.0, 0.0, 0.0, 0.001)"
1637149415883789287, 14227, 1636513332, 619752883, base_link, 0.00315023765811, -0.015792875403, -0.689304136714, 0.7242930817, "(0.0013431674884790135, 0.0, 0.0, 0.0, 0.001341814552968723, 0.0, 0.0, 0.0, 0.02080733755987496)", 0.00764842945294, -0.00911158383672, 0.000870199694284, "(0.001, 0.0, 0.0, 0.0, 0.001, 0.0, 0.0, 0.0, 0.001)", 0.252236691431, 0.795798742841, -0.139916283399, "(0.001, 0.0, 0.0, 0.0, 0.001, 0.0, 0.0, 0.0, 0.001)"
1637149415903860636, 14228, 1636513332, 639823913, base_link, 0.00315530168283, -0.0158401353036, -0.689290639232, 0.724304872862, "(0.0013431674884790135, 0.0, 0.0, 0.0, 0.001341814552968723, 0.0, 0.0, 0.0, 0.02080733755987496)", 0.0102530071611, -0.00973214974968, 0.00392489415359, "(0.001, 0.0, 0.0, 0.0, 0.001, 0.0, 0.0, 0.0, 0.001)", -0.311528725423, 1.33162745227, 0.50579629044, "(0.001, 0.0, 0.0, 0.0, 0.001, 0.0, 0.0, 0.0, 0.001)"
1637149415926059492, 14229, 1636513332, 661622047, base_link, 0.00315825668001, -0.0158760906396, -0.689278146632, 0.72431596126, "(0.0013431674884790135, 0.0, 0.0, 0.0, 0.001341814552968723, 0.0, 0.0, 0.0, 0.02080733755987496)", 0.00404239510808, -0.00534185812828, 0.00195360806483, "(0.001, 0.0, 0.0, 0.0, 0.001, 0.0, 0.0, 0.0, 0.001)", 0.570883913841, 0.807527242949, -0.0981130235614, "(0.001, 0.0, 0.0, 0.0, 0.001, 0.0, 0.0, 0.0, 0.001)"
1637149415943481191, 14230, 1636513332, 679394006, base_link, 0.00316572811223, -0.0158977424874, -0.689267758454, 0.724325339267, "(0.0013431674884790135, 0.0, 0.0, 0.0, 0.001341814552968723, 0.0, 0.0, 0.0, 0.02080733755987496)", 0.00718642514083, -0.00390986210658, 0.0041049385079, "(0.001, 0.0, 0.0, 0.0, 0.001, 0.0, 0.0, 0.0, 0.001)", -0.1978051223, 1.20064973651, 0.351373720598, "(0.001, 0.0, 0.0, 0.0, 0.001, 0.0, 0.0, 0.0, 0.001)"
1637149415964967605, 14231, 1636513332, 700758934, base_link, 0.00317333969951, -0.0159131398566, -0.689236769452, 0.724354455726, "(0.0013431674884790135, 0.0, 0.0, 0.0, 0.001341814552968723, 0.0, 0.0, 0.0, 0.02080733755987496)", 0.00233559370295, -0.00194545762152, 0.00454295396597, "(0.001, 0.0, 0.0, 0.0, 0.001, 0.0, 0.0, 0.0, 0.001)", 0.303000584595, 0.641897769483, -0.140305715841, "(0.001, 0.0, 0.0, 0.0, 0.001, 0.0, 0.0, 0.0, 0.001)"
1637149415984674915, 14232, 1636513332, 720628976, base_link, 0.00313821823375, -0.0159606654735, -0.689214593554, 0.724374663262, "(0.0013431674884790135, 0.0, 0.0, 0.0, 0.001341814552968723, 0.0, 0.0, 0.0, 0.02080733755987496)", 0.00361037522051, -0.00821790668278, 0.0078359140986, "(0.001, 0.0, 0.0, 0.0, 0.001, 0.0, 0.0, 0.0, 0.001)", -0.22390413458, 1.33703140488, 0.277498681999, "(0.001, 0.0, 0.0, 0.0, 0.001, 0.0, 0.0, 0.0, 0.001)"
1637149416003913676, 14233, 1636513332, 739794969, base_link, 0.00311069457211, -0.0159784549561, -0.689181520059, 0.724405856524, "(0.0013431674884790135, 0.0, 0.0, 0.0, 0.001341814552968723, 0.0, 0.0, 0.0, 0.02080733755987496)", -0.000500050317733, -0.00575640407225, 0.00665989450672, "(0.001, 0.0, 0.0, 0.0, 0.001, 0.0, 0.0, 0.0, 0.001)", 0.23840866537, 0.873956213251, 0.199351807854, "(0.001, 0.0, 0.0, 0.0, 0.001, 0.0, 0.0, 0.0, 0.001)"
1637149416025530672, 14234, 1636513332, 760554075, base_link, 0.00305574504689, -0.016008015538, -0.689158912202, 0.724426945657, "(0.0013431674884790135, 0.0, 0.0, 0.0, 0.001341814552968723, 0.0, 0.0, 0.0, 0.02080733755987496)", -0.00279901919641, -0.0116711858589, 0.00821502932851, "(0.001, 0.0, 0.0, 0.0, 0.001, 0.0, 0.0, 0.0, 0.001)", 0.106506822613, 1.36168463133, 0.0768771348117, "(0.001, 0.0, 0.0, 0.0, 0.001, 0.0, 0.0, 0.0, 0.001)"
1637149416045680418, 14235, 1636513332, 781629085, base_link, 0.00299717785031, -0.0160432206955, -0.68912737398, 0.724456413061, "(0.0013431674884790135, 0.0, 0.0, 0.0, 0.001341814552968723, 0.0, 0.0, 0.0, 0.02080733755987496)", -0.00261032818844, -0.00956144969596, 0.00708346402329, "(0.001, 0.0, 0.0, 0.0, 0.001, 0.0, 0.0, 0.0, 0.001)", -0.206994864196, 0.971628146921, 0.302629937178, "(0.001, 0.0, 0.0, 0.0, 0.001, 0.0, 0.0, 0.0, 0.001)"
1637149416065110298, 14236, 1636513332, 800709009, base_link, 0.00299717785031, -0.0160432206955, -0.68912737398, 0.724456413061, "(0.0013431674884790135, 0.0, 0.0, 0.0, 0.001341814552968723, 0.0, 0.0, 0.0, 0.02080733755987496)", -0.00999334316008, -0.0126797474982, 0.00682168780496, "(0.001, 0.0, 0.0, 0.0, 0.001, 0.0, 0.0, 0.0, 0.001)", 0.644839699369, 1.38277314381, -0.207149563172, "(0.001, 0.0, 0.0, 0.0, 0.001, 0.0, 0.0, 0.0, 0.001)"
1637149416084269288, 14237, 1636513332, 820209026, base_link, 0.00289626976169, -0.0160222303259, -0.689097294152, 0.724485899759, "(0.0013431674884790135, 0.0, 0.0, 0.0, 0.001341814552968723, 0.0, 0.0, 0.0, 0.02080733755987496)", -0.00532164159755, -0.00399418599591, 0.00462026525937, "(0.001, 0.0, 0.0, 0.0, 0.001, 0.0, 0.0, 0.0, 0.001)", -0.256828246967, 0.882837993286, 0.246848914773, "(0.001, 0.0, 0.0, 0.0, 0.001, 0.0, 0.0, 0.0, 0.001)"
1637149416104425751, 14238, 1636513332, 840363979, base_link, 0.00285989001481, -0.015996252889, -0.689085765868, 0.724497583296, "(0.0013431674884790135, 0.0, 0.0, 0.0, 0.001341814552968723, 0.0, 0.0, 0.0, 0.02080733755987496)", -0.0103524633391, -0.00419872114208, 0.00439530155164, "(0.001, 0.0, 0.0, 0.0, 0.001, 0.0, 0.0, 0.0, 0.001)", 0.637455196057, 1.466857526, -0.435908101929, "(0.001, 0.0, 0.0, 0.0, 0.001, 0.0, 0.0, 0.0, 0.001)"
1637149416123867893, 14239, 1636513332, 859392881, base_link, 0.00281536586095, -0.0159568676935, -0.689090754611, 0.72449388127, "(0.0013431674884790135, 0.0, 0.0, 0.0, 0.001341814552968723, 0.0, 0.0, 0.0, 0.02080733755987496)", -0.00780012219392, -0.000213118840323, 0.000956852969451, "(0.001, 0.0, 0.0, 0.0, 0.001, 0.0, 0.0, 0.0, 0.001)", -0.219832677626, 0.970546117043, 0.156917943586, "(0.001, 0.0, 0.0, 0.0, 0.001, 0.0, 0.0, 0.0, 0.001)"
1637149416146090486, 14240, 1636513332, 881962060, base_link, 0.00279623161571, -0.0159121920453, -0.689074727379, 0.724510181654, "(0.0013431674884790135, 0.0, 0.0, 0.0, 0.001341814552968723, 0.0, 0.0, 0.0, 0.02080733755987496)", -0.0122569673607, 0.00214208223586, 0.00308209440886, "(0.001, 0.0, 0.0, 0.0, 0.001, 0.0, 0.0, 0.0, 0.001)", 0.303180091088, 1.32824917523, -0.40890072443, "(0.001, 0.0, 0.0, 0.0, 0.001, 0.0, 0.0, 0.0, 0.001)"
1637149416163639920, 14241, 1636513332, 899590969, base_link, 0.00275073807363, -0.0158639076736, -0.689084471801, 0.724502146716, "(0.0013431674884790135, 0.0, 0.0, 0.0, 0.001341814552968723, 0.0, 0.0, 0.0, 0.02080733755987496)", -0.00937420001527, 0.000952679185499, -0.000334721331688, "(0.001, 0.0, 0.0, 0.0, 0.001, 0.0, 0.0, 0.0, 0.001)", 0.0321169017072, 0.929801814585, -0.0343816756017, "(0.001, 0.0, 0.0, 0.0, 0.001, 0.0, 0.0, 0.0, 0.001)"
1637149416183779233, 14242, 1636513332, 919675111, base_link, 0.00273762708322, -0.0157811073742, -0.689066111033, 0.724521467366, "(0.0013431674884790135, 0.0, 0.0, 0.0, 0.001341814552968723, 0.0, 0.0, 0.0, 0.02080733755987496)", -0.0143263907535, 0.00750722912929, 0.0034284695748, "(0.001, 0.0, 0.0, 0.0, 0.001, 0.0, 0.0, 0.0, 0.001)", 0.278388130061, 1.38741568042, -0.0146608091871, "(0.001, 0.0, 0.0, 0.0, 0.001, 0.0, 0.0, 0.0, 0.001)"
1637149416204937934, 14243, 1636513332, 940843105, base_link, 0.00268711093315, -0.0157003292314, -0.68906613765, 0.724523386124, "(0.0013431674884790135, 0.0, 0.0, 0.0, 0.001341814552968723, 0.0, 0.0, 0.0, 0.02080733755987496)", -0.0136980542975, 0.00420027337516, 0.000690800186383, "(0.001, 0.0, 0.0, 0.0, 0.001, 0.0, 0.0, 0.0, 0.001)", 0.313862038799, 1.08892838064, -0.0777725636968, "(0.001, 0.0, 0.0, 0.0, 0.001, 0.0, 0.0, 0.0, 0.001)"
1637149416223969135, 14244, 1636513332, 959480047, base_link, 0.00266693018507, -0.0155903909784, -0.689043984487, 0.724546902992, "(0.0013431674884790135, 0.0, 0.0, 0.0, 0.001341814552968723, 0.0, 0.0, 0.0, 0.02080733755987496)", -0.0210002148946, 0.0117107209637, 0.00579455587898, "(0.001, 0.0, 0.0, 0.0, 0.001, 0.0, 0.0, 0.0, 0.001)", 0.349322165117, 1.29821517799, 0.295861189344, "(0.001, 0.0, 0.0, 0.0, 0.001, 0.0, 0.0, 0.0, 0.001)"
1637149416244039247, 14245, 1636513332, 979935884, base_link, 0.0026425276159, -0.0154719286351, -0.689015533959, 0.724576587005, "(0.0013431674884790135, 0.0, 0.0, 0.0, 0.001341814552968723, 0.0, 0.0, 0.0, 0.02080733755987496)", -0.015884350849, 0.0100417399571, 0.00467946180574, "(0.001, 0.0, 0.0, 0.0, 0.001, 0.0, 0.0, 0.0, 0.001)", 0.66894721202, 0.804625808126, -0.222712547281, "(0.001, 0.0, 0.0, 0.0, 0.001, 0.0, 0.0, 0.0, 0.001)"
1637149416263467698, 14246, 1636513332, 999430894, base_link, 0.0026301815153, -0.0153614940819, -0.68899959182, 0.724594140962, "(0.0013431674884790135, 0.0, 0.0, 0.0, 0.001341814552968723, 0.0, 0.0, 0.0, 0.02080733755987496)", -0.0205479732597, 0.0164798190646, 0.00787045033944, "(0.001, 0.0, 0.0, 0.0, 0.001, 0.0, 0.0, 0.0, 0.001)", -0.362633433005, 1.31724215109, 0.191063296386, "(0.001, 0.0, 0.0, 0.0, 0.001, 0.0, 0.0, 0.0, 0.001)"
1637149416283862213, 14247, 1636513333, 19856929, base_link, 0.00262957899906, -0.0152201824253, -0.688971738571, 0.724623609063, "(0.0013431674884790135, 0.0, 0.0, 0.0, 0.001341814552968723, 0.0, 0.0, 0.0, 0.02080733755987496)", -0.0150704585717, 0.0140652640851, 0.00511931382665, "(0.001, 0.0, 0.0, 0.0, 0.001, 0.0, 0.0, 0.0, 0.001)", 0.590820076861, 0.81991460608, 0.147862761734, "(0.001, 0.0, 0.0, 0.0, 0.001, 0.0, 0.0, 0.0, 0.001)"
1637149416303839753, 14248, 1636513333, 39613962, base_link, 0.00263858427019, -0.0150524828586, -0.688972220545, 0.724626621061, "(0.0013431674884790135, 0.0, 0.0, 0.0, 0.001341814552968723, 0.0, 0.0, 0.0, 0.02080733755987496)", -0.0246795261059, 0.0269901905472, 0.00404124045998, "(0.001, 0.0, 0.0, 0.0, 0.001, 0.0, 0.0, 0.0, 0.001)", -0.033692563813, 0.982133415097, 0.388971869915, "(0.001, 0.0, 0.0, 0.0, 0.001, 0.0, 0.0, 0.0, 0.001)"
1637149416325190769, 14249, 1636513333, 61130046, base_link, 0.0026883460689, -0.0148935815215, -0.688958605991, 0.724642665909, "(0.0013431674884790135, 0.0, 0.0, 0.0, 0.001341814552968723, 0.0, 0.0, 0.0, 0.02080733755987496)", -0.0136110530164, 0.0216206187458, 0.00298784426674, "(0.001, 0.0, 0.0, 0.0, 0.001, 0.0, 0.0, 0.0, 0.001)", 0.0706341928401, 0.724303259284, 0.302874174662, "(0.001, 0.0, 0.0, 0.0, 0.001, 0.0, 0.0, 0.0, 0.001)"
1637149416343552199, 14250, 1636513333, 79504966, base_link, 0.00270532664351, -0.0146905668464, -0.688970329027, 0.724635600957, "(0.0013431674884790135, 0.0, 0.0, 0.0, 0.001341814552968723, 0.0, 0.0, 0.0, 0.02080733755987496)", -0.026350584041, 0.0361185079855, -0.000515135339857, "(0.001, 0.0, 0.0, 0.0, 0.001, 0.0, 0.0, 0.0, 0.001)", 0.280844621749, 1.12164658852, 0.339567639033, "(0.001, 0.0, 0.0, 0.0, 0.001, 0.0, 0.0, 0.0, 0.001)"
1637149416363826877, 14251, 1636513333, 99565029, base_link, 0.00271988079417, -0.0145150504825, -0.688968938253, 0.724640405774, "(0.0013431674884790135, 0.0, 0.0, 0.0, 0.001341814552968723, 0.0, 0.0, 0.0, 0.02080733755987496)", -0.0169341475105, 0.0234473640644, 0.00049023579951, "(0.001, 0.0, 0.0, 0.0, 0.001, 0.0, 0.0, 0.0, 0.001)", -0.499710357376, 0.37914608928, 0.272891603439, "(0.001, 0.0, 0.0, 0.0, 0.001, 0.0, 0.0, 0.0, 0.001)"
1637149416385006959, 14252, 1636513333, 120935916, base_link, 0.00271077321973, -0.0143755833276, -0.688965193597, 0.724646780386, "(0.0013431674884790135, 0.0, 0.0, 0.0, 0.001341814552968723, 0.0, 0.0, 0.0, 0.02080733755987496)", -0.025948677376, 0.0276233440589, 0.000538230908688, "(0.001, 0.0, 0.0, 0.0, 0.001, 0.0, 0.0, 0.0, 0.001)", 0.242279071515, 0.98606689085, 0.15973688877, "(0.001, 0.0, 0.0, 0.0, 0.001, 0.0, 0.0, 0.0, 0.001)"
1637149416403843557, 14253, 1636513333, 139811992, base_link, 0.00266766227989, -0.0142463545667, -0.688972491627, 0.724642553774, "(0.0013431674884790135, 0.0, 0.0, 0.0, 0.001341814552968723, 0.0, 0.0, 0.0, 0.02080733755987496)", -0.018024483862, 0.0132981055208, 6.87167147869e-05, "(0.001, 0.0, 0.0, 0.0, 0.001, 0.0, 0.0, 0.0, 0.001)", -0.511667752033, 0.834661156661, 0.193843107245, "(0.001, 0.0, 0.0, 0.0, 0.001, 0.0, 0.0, 0.0, 0.001)"
1637149416423784669, 14254, 1636513333, 159425973, base_link, 0.00264049195285, -0.014158226045, -0.688955328585, 0.724660698294, "(0.0013431674884790135, 0.0, 0.0, 0.0, 0.001341814552968723, 0.0, 0.0, 0.0, 0.02080733755987496)", -0.0242583880026, 0.0149534148512, 0.00269860760487, "(0.001, 0.0, 0.0, 0.0, 0.001, 0.0, 0.0, 0.0, 0.001)", -0.037824757765, 0.813972341194, -0.157568711635, "(0.001, 0.0, 0.0, 0.0, 0.001, 0.0, 0.0, 0.0, 0.001)"
1637149416445059717, 14255, 1636513333, 181022882, base_link, 0.00259391672973, -0.0140423639751, -0.688958169793, 0.724660419704, "(0.0013431674884790135, 0.0, 0.0, 0.0, 0.001341814552968723, 0.0, 0.0, 0.0, 0.02080733755987496)", -0.0163102390777, 0.00744246523768, 0.000845998607201, "(0.001, 0.0, 0.0, 0.0, 0.001, 0.0, 0.0, 0.0, 0.001)", -0.0404959939252, 0.700237573463, -0.0849438308528, "(0.001, 0.0, 0.0, 0.0, 0.001, 0.0, 0.0, 0.0, 0.001)"
1637149416463357485, 14256, 1636513333, 199350118, base_link, 0.00260034146978, -0.0139227144592, -0.688952163322, 0.724668415829, "(0.0013431674884790135, 0.0, 0.0, 0.0, 0.001341814552968723, 0.0, 0.0, 0.0, 0.02080733755987496)", -0.0210787372707, 0.0169502990398, 0.0019764501792, "(0.001, 0.0, 0.0, 0.0, 0.001, 0.0, 0.0, 0.0, 0.001)", 0.202885577825, 1.12393706663, -0.120966481186, "(0.001, 0.0, 0.0, 0.0, 0.001, 0.0, 0.0, 0.0, 0.001)"
1637149416485030175, 14257, 1636513333, 220899105, base_link, 0.00260052302693, -0.0138038151277, -0.688946488949, 0.724676084421, "(0.0013431674884790135, 0.0, 0.0, 0.0, 0.001341814552968723, 0.0, 0.0, 0.0, 0.02080733755987496)", -0.0136242296209, 0.0136433230613, 0.000860032663786, "(0.001, 0.0, 0.0, 0.0, 0.001, 0.0, 0.0, 0.0, 0.001)", 0.359084202156, 0.74036949392, -0.213898443049, "(0.001, 0.0, 0.0, 0.0, 0.001, 0.0, 0.0, 0.0, 0.001)"
1637149416505393171, 14258, 1636513333, 241347074, base_link, 0.00262773233401, -0.0136736035107, -0.688949006668, 0.724676061286, "(0.0013431674884790135, 0.0, 0.0, 0.0, 0.001341814552968723, 0.0, 0.0, 0.0, 0.02080733755987496)", -0.0187777108915, 0.0243868154493, 0.00112545030455, "(0.001, 0.0, 0.0, 0.0, 0.001, 0.0, 0.0, 0.0, 0.001)", -0.127946569219, 0.82361962603, -0.228563653619, "(0.001, 0.0, 0.0, 0.0, 0.001, 0.0, 0.0, 0.0, 0.001)"
1637149416524065505, 14259, 1636513333, 259989976, base_link, 0.00266596755422, -0.0135657242615, -0.688931404824, 0.724694682738, "(0.0013431674884790135, 0.0, 0.0, 0.0, 0.001341814552968723, 0.0, 0.0, 0.0, 0.02080733755987496)", -0.00926095466412, 0.0164419919366, 0.00184118085737, "(0.001, 0.0, 0.0, 0.0, 0.001, 0.0, 0.0, 0.0, 0.001)", 0.328010534303, 0.707618394003, -0.42734160856, "(0.001, 0.0, 0.0, 0.0, 0.001, 0.0, 0.0, 0.0, 0.001)"
1637149416545313061, 14260, 1636513333, 281239032, base_link, 0.00266918768501, -0.0134848390336, -0.688928362437, 0.724699072707, "(0.0013431674884790135, 0.0, 0.0, 0.0, 0.001341814552968723, 0.0, 0.0, 0.0, 0.02080733755987496)", -0.0119895595471, 0.0192634016273, 0.00287190149136, "(0.001, 0.0, 0.0, 0.0, 0.001, 0.0, 0.0, 0.0, 0.001)", -0.314676031089, 1.19303452165, -0.16607279383, "(0.001, 0.0, 0.0, 0.0, 0.001, 0.0, 0.0, 0.0, 0.001)"
1637149416567904306, 14261, 1636513333, 303862094, base_link, 0.0027090925033, -0.0133913430409, -0.688883782205, 0.724743035402, "(0.0013431674884790135, 0.0, 0.0, 0.0, 0.001341814552968723, 0.0, 0.0, 0.0, 0.02080733755987496)", -0.00705921231007, 0.0142051356191, 0.00638482972971, "(0.001, 0.0, 0.0, 0.0, 0.001, 0.0, 0.0, 0.0, 0.001)", 0.524234033237, 0.626197828543, -0.0255133082914, "(0.001, 0.0, 0.0, 0.0, 0.001, 0.0, 0.0, 0.0, 0.001)"
1637149416586248192, 14262, 1636513333, 322164058, base_link, 0.00271860894392, -0.0133144377449, -0.688858344342, 0.724768595031, "(0.0017312881448141582, 0.0, 0.0, 0.0, 0.0017292640656819819, 0.0, 0.0, 0.0, 0.02122050768481132)", -0.0111122941314, 0.0173724946282, 0.00952173391372, "(0.001, 0.0, 0.0, 0.0, 0.001, 0.0, 0.0, 0.0, 0.001)", 0.200679574401, 1.11498880034, -0.168731107348, "(0.001, 0.0, 0.0, 0.0, 0.001, 0.0, 0.0, 0.0, 0.001)"
1637149416604453851, 14263, 1636513333, 340306043, base_link, 0.0027305713485, -0.0132242633971, -0.688818487252, 0.72480808112, "(0.0015203231038320025, 0.0, 0.0, 0.0, 0.0015179816402213775, 0.0, 0.0, 0.0, 0.021187222348119983)", -0.00727699717357, 0.0120585127405, 0.00848670719956, "(0.001, 0.0, 0.0, 0.0, 0.001, 0.0, 0.0, 0.0, 0.001)", -0.104769935462, 0.802252362015, 0.110642728035, "(0.001, 0.0, 0.0, 0.0, 0.001, 0.0, 0.0, 0.0, 0.001)"
1637149416624783477, 14264, 1636513333, 360663890, base_link, 0.00271951282454, -0.0131310425324, -0.688773830399, 0.724852254276, "(0.0015203231038320025, 0.0, 0.0, 0.0, 0.0015179816402213775, 0.0, 0.0, 0.0, 0.021187222348119983)", -0.0150076336866, 0.015680582077, 0.0131675754705, "(0.001, 0.0, 0.0, 0.0, 0.001, 0.0, 0.0, 0.0, 0.001)", 0.356562630306, 1.40637742354, -0.0111470798371, "(0.001, 0.0, 0.0, 0.0, 0.001, 0.0, 0.0, 0.0, 0.001)"
1637149416645049975, 14265, 1636513333, 380959033, base_link, 0.00271639343853, -0.0130382819444, -0.68873685447, 0.72488907407, "(0.0015203231038320025, 0.0, 0.0, 0.0, 0.0015179816402213775, 0.0, 0.0, 0.0, 0.021187222348119983)", -0.0103478990305, 0.0106387644776, 0.00956124545776, "(0.001, 0.0, 0.0, 0.0, 0.001, 0.0, 0.0, 0.0, 0.001)", -0.454033138501, 0.687844058145, 0.00473257348041, "(0.001, 0.0, 0.0, 0.0, 0.001, 0.0, 0.0, 0.0, 0.001)"
1637149416663970448, 14266, 1636513333, 399826049, base_link, 0.00275462363517, -0.012950221448, -0.68869592008, 0.724929398962, "(0.0015203231038320025, 0.0, 0.0, 0.0, 0.0015179816402213775, 0.0, 0.0, 0.0, 0.021187222348119983)", -0.011658379991, 0.018138022641, 0.0133004354183, "(0.001, 0.0, 0.0, 0.0, 0.001, 0.0, 0.0, 0.0, 0.001)", 0.325572427589, 1.09237231606, -0.362792550415, "(0.001, 0.0, 0.0, 0.0, 0.001, 0.0, 0.0, 0.0, 0.001)"
1637149416685622076, 14267, 1636513333, 421458005, base_link, 0.00276838409898, -0.0128394777417, -0.688681183054, 0.724945316537, "(0.0015203231038320025, 0.0, 0.0, 0.0, 0.0015179816402213775, 0.0, 0.0, 0.0, 0.021187222348119983)", -0.00922457114551, 0.0142370744985, 0.00543947065931, "(0.001, 0.0, 0.0, 0.0, 0.001, 0.0, 0.0, 0.0, 0.001)", -0.233728882282, 0.732260323195, -0.241729117532, "(0.001, 0.0, 0.0, 0.0, 0.001, 0.0, 0.0, 0.0, 0.001)"
1637149416703508217, 14268, 1636513333, 439416885, base_link, 0.00280107486513, -0.0128083928091, -0.688661877104, 0.724964080543, "(0.0015203231038320025, 0.0, 0.0, 0.0, 0.0015179816402213775, 0.0, 0.0, 0.0, 0.021187222348119983)", -0.00550026849398, 0.0165086869564, 0.00753253677512, "(0.001, 0.0, 0.0, 0.0, 0.001, 0.0, 0.0, 0.0, 0.001)", -0.907032034218, 1.12436446385, -0.341703017252, "(0.001, 0.0, 0.0, 0.0, 0.001, 0.0, 0.0, 0.0, 0.001)"
1637149416726761548, 14269, 1636513333, 460644960, base_link, 0.00281468975362, -0.012763177209, -0.688662403853, 0.724964324879, "(0.0015203231038320025, 0.0, 0.0, 0.0, 0.0015179816402213775, 0.0, 0.0, 0.0, 0.021187222348119983)", -0.00377452329004, 0.006744827633, 0.00123052751097, "(0.001, 0.0, 0.0, 0.0, 0.001, 0.0, 0.0, 0.0, 0.001)", 0.0659362147358, 0.861156425296, -0.289873876033, "(0.001, 0.0, 0.0, 0.0, 0.001, 0.0, 0.0, 0.0, 0.001)"
1637149416744905754, 14270, 1636513333, 480773925, base_link, 0.00281672290899, -0.0127613648169, -0.688673051132, 0.724954234614, "(0.0015203231038320025, 0.0, 0.0, 0.0, 0.0015179816402213775, 0.0, 0.0, 0.0, 0.021187222348119983)", -0.00255231576375, 0.00626872021823, -0.000413018991337, "(0.001, 0.0, 0.0, 0.0, 0.001, 0.0, 0.0, 0.0, 0.001)", -1.21675704899, 0.832978500808, -0.392840274245, "(0.001, 0.0, 0.0, 0.0, 0.001, 0.0, 0.0, 0.0, 0.001)"
1637149416763810646, 14271, 1636513333, 499536037, base_link, 0.00283001749627, -0.0127775779509, -0.688688923055, 0.724938819325, "(0.0015203231038320025, 0.0, 0.0, 0.0, 0.0015179816402213775, 0.0, 0.0, 0.0, 0.021187222348119983)", 0.00175084212472, -0.000227830303807, -0.00319681641779, "(0.001, 0.0, 0.0, 0.0, 0.001, 0.0, 0.0, 0.0, 0.001)", 0.0896737537742, 1.03004654303, -0.352873085405, "(0.001, 0.0, 0.0, 0.0, 0.001, 0.0, 0.0, 0.0, 0.001)"
1637149416784030196, 14272, 1636513333, 519920110, base_link, 0.00280803295529, -0.0127707054531, -0.688727679803, 0.724902205202, "(0.0015203231038320025, 0.0, 0.0, 0.0, 0.0015179816402213775, 0.0, 0.0, 0.0, 0.021187222348119983)", -0.00100257191504, -0.000794906608128, -0.00890933673205, "(0.001, 0.0, 0.0, 0.0, 0.001, 0.0, 0.0, 0.0, 0.001)", -0.682141131442, 1.27318435742, -0.309337944942, "(0.001, 0.0, 0.0, 0.0, 0.001, 0.0, 0.0, 0.0, 0.001)"
1637149416805159591, 14273, 1636513333, 541045904, base_link, 0.00279773874779, -0.0128341430389, -0.68874583823, 0.724883871907, "(0.0015203231038320025, 0.0, 0.0, 0.0, 0.0015179816402213775, 0.0, 0.0, 0.0, 0.021187222348119983)", 0.00287669650545, -0.00576575340326, -0.00498293511774, "(0.001, 0.0, 0.0, 0.0, 0.001, 0.0, 0.0, 0.0, 0.001)", -0.586003772444, 0.613590034328, -0.184088535867, "(0.001, 0.0, 0.0, 0.0, 0.001, 0.0, 0.0, 0.0, 0.001)"
1637149416827218309, 14274, 1636513333, 561789035, base_link, 0.00279773874779, -0.0128341430389, -0.68874583823, 0.724883871907, "(0.0015203231038320025, 0.0, 0.0, 0.0, 0.0015179816402213775, 0.0, 0.0, 0.0, 0.021187222348119983)", 0.0028107780713, -0.018541735847, -0.0112003555099, "(0.001, 0.0, 0.0, 0.0, 0.001, 0.0, 0.0, 0.0, 0.001)", -0.2865036503, 1.45335184116, -0.108823301349, "(0.001, 0.0, 0.0, 0.0, 0.001, 0.0, 0.0, 0.0, 0.001)"
1637149416845837180, 14275, 1636513333, 580307960, base_link, 0.00266589667742, -0.0129751637874, -0.688818242597, 0.72481305644, "(0.0015203231038320025, 0.0, 0.0, 0.0, 0.0015179816402213775, 0.0, 0.0, 0.0, 0.021187222348119983)", 0.00081862101047, -0.0140045247577, -0.00655690396757, "(0.001, 0.0, 0.0, 0.0, 0.001, 0.0, 0.0, 0.0, 0.001)", -0.465163394735, 0.710405583464, 0.128394257853, "(0.001, 0.0, 0.0, 0.0, 0.001, 0.0, 0.0, 0.0, 0.001)"
1637149416864482224, 14276, 1636513333, 600367069, base_link, 0.0026073161981, -0.0130446428714, -0.688842753048, 0.724788728367, "(0.0015203231038320025, 0.0, 0.0, 0.0, 0.0015179816402213775, 0.0, 0.0, 0.0, 0.021187222348119983)", 3.12646546274e-05, -0.0221731875635, -0.00963857432276, "(0.001, 0.0, 0.0, 0.0, 0.001, 0.0, 0.0, 0.0, 0.001)", 0.218293728242, 1.08510456233, -0.00895114100917, "(0.001, 0.0, 0.0, 0.0, 0.001, 0.0, 0.0, 0.0, 0.001)"
1637149416884054241, 14277, 1636513333, 619946956, base_link, 0.00252984096511, -0.0131107532923, -0.688869751948, 0.724762149194, "(0.0015203231038320025, 0.0, 0.0, 0.0, 0.0015179816402213775, 0.0, 0.0, 0.0, 0.021187222348119983)", -0.000593879043717, -0.0153219968683, -0.00558355436657, "(0.001, 0.0, 0.0, 0.0, 0.001, 0.0, 0.0, 0.0, 0.001)", -0.206761925682, 0.734412293354, 0.137311449106, "(0.001, 0.0, 0.0, 0.0, 0.001, 0.0, 0.0, 0.0, 0.001)"
1637149416903664630, 14278, 1636513333, 639642000, base_link, 0.00248041720837, -0.0131891260532, -0.688871779416, 0.724758970975, "(0.0015203231038320025, 0.0, 0.0, 0.0, 0.0015179816402213775, 0.0, 0.0, 0.0, 0.021187222348119983)", 0.00190802645927, -0.022426535534, -0.00420290765575, "(0.001, 0.0, 0.0, 0.0, 0.001, 0.0, 0.0, 0.0, 0.001)", 0.135015062935, 0.904674336218, 0.0511273112877, "(0.001, 0.0, 0.0, 0.0, 0.001, 0.0, 0.0, 0.0, 0.001)"
1637149416925040968, 14279, 1636513333, 661025047, base_link, 0.00242655846962, -0.0132523393445, -0.688889647809, 0.724741016127, "(0.0015203231038320025, 0.0, 0.0, 0.0, 0.0015179816402213775, 0.0, 0.0, 0.0, 0.021187222348119983)", 0.00111568960772, -0.0150271666774, -0.0035203506516, "(0.001, 0.0, 0.0, 0.0, 0.001, 0.0, 0.0, 0.0, 0.001)", 0.350377766319, 0.91175938625, 0.103096377202, "(0.001, 0.0, 0.0, 0.0, 0.001, 0.0, 0.0, 0.0, 0.001)"
1637149416943426996, 14280, 1636513333, 679344892, base_link, 0.0023897893267, -0.0132891263884, -0.68888079045, 0.724748883805, "(0.0015203231038320025, 0.0, 0.0, 0.0, 0.0015179816402213775, 0.0, 0.0, 0.0, 0.021187222348119983)", 0.000652987504579, -0.0161092238419, 9.02772462845e-05, "(0.001, 0.0, 0.0, 0.0, 0.001, 0.0, 0.0, 0.0, 0.001)", 0.115860623948, 0.895270855354, 0.19499666253, "(0.001, 0.0, 0.0, 0.0, 0.001, 0.0, 0.0, 0.0, 0.001)"
1637149416963955800, 14281, 1636513333, 699948072, base_link, 0.00236873193593, -0.0133553844928, -0.688868075053, 0.724759820897, "(0.0015203231038320025, 0.0, 0.0, 0.0, 0.0015179816402213775, 0.0, 0.0, 0.0, 0.021187222348119983)", 0.00220387613697, -0.00997224893852, 0.00107341924913, "(0.001, 0.0, 0.0, 0.0, 0.001, 0.0, 0.0, 0.0, 0.001)", 0.550127732809, 0.646328790231, -0.197859366423, "(0.001, 0.0, 0.0, 0.0, 0.001, 0.0, 0.0, 0.0, 0.001)"
1637149416984364148, 14282, 1636513333, 720304965, base_link, 0.00233670358791, -0.0133873362126, -0.688855120826, 0.724771647871, "(0.0015203231038320025, 0.0, 0.0, 0.0, 0.0015179816402213775, 0.0, 0.0, 0.0, 0.021187222348119983)", 0.0034129254896, -0.0131651793554, 0.00449280209357, "(0.001, 0.0, 0.0, 0.0, 0.001, 0.0, 0.0, 0.0, 0.001)", 0.279881066739, 1.24465029134, 0.2203093129, "(0.001, 0.0, 0.0, 0.0, 0.001, 0.0, 0.0, 0.0, 0.001)"
1637149417003871874, 14283, 1636513333, 739825010, base_link, 0.00234649436856, -0.0134024468654, -0.688826503759, 0.724798534837, "(0.0015203231038320025, 0.0, 0.0, 0.0, 0.0015179816402213775, 0.0, 0.0, 0.0, 0.021187222348119983)", 0.00164185168166, -0.00376904524869, 0.0044917443083, "(0.001, 0.0, 0.0, 0.0, 0.001, 0.0, 0.0, 0.0, 0.001)", 0.630816532919, 0.593221885474, -0.0107885050334, "(0.001, 0.0, 0.0, 0.0, 0.001, 0.0, 0.0, 0.0, 0.001)"
1637149417025261220, 14284, 1636513333, 760601997, base_link, 0.00236403944737, -0.0134277342118, -0.688821871179, 0.724802412425, "(0.0015203231038320025, 0.0, 0.0, 0.0, 0.0015179816402213775, 0.0, 0.0, 0.0, 0.021187222348119983)", 0.00511281432982, -0.0030283541651, 0.00403628869776, "(0.001, 0.0, 0.0, 0.0, 0.001, 0.0, 0.0, 0.0, 0.001)", 0.435239031974, 1.07770494964, -0.0268954016734, "(0.001, 0.0, 0.0, 0.0, 0.001, 0.0, 0.0, 0.0, 0.001)"
1637149417045518011, 14285, 1636513333, 781480073, base_link, 0.00240827002191, -0.0134326984174, -0.68879880103, 0.72482409904, "(0.0015203231038320025, 0.0, 0.0, 0.0, 0.0015179816402213775, 0.0, 0.0, 0.0, 0.021187222348119983)", 0.00506043636801, 0.00256167719698, 0.0044391409205, "(0.001, 0.0, 0.0, 0.0, 0.001, 0.0, 0.0, 0.0, 0.001)", 0.243290697281, 0.549476460209, -0.017556623726, "(0.001, 0.0, 0.0, 0.0, 0.001, 0.0, 0.0, 0.0, 0.001)"
1637149417065117965, 14286, 1636513333, 801016092, base_link, 0.00245287485846, -0.0134549713196, -0.688799073324, 0.724823277592, "(0.0015203231038320025, 0.0, 0.0, 0.0, 0.0015179816402213775, 0.0, 0.0, 0.0, 0.021187222348119983)", 0.00980688416857, 0.00315925642456, 0.00202790059314, "(0.001, 0.0, 0.0, 0.0, 0.001, 0.0, 0.0, 0.0, 0.001)", 0.295449804039, 0.789635361904, -0.288533588461, "(0.001, 0.0, 0.0, 0.0, 0.001, 0.0, 0.0, 0.0, 0.001)"
1637149417084863010, 14287, 1636513333, 820229053, base_link, 0.00250941653908, -0.0134763626748, -0.688798308995, 0.72482341298, "(0.0015203231038320025, 0.0, 0.0, 0.0, 0.0015179816402213775, 0.0, 0.0, 0.0, 0.021187222348119983)", 0.00831273929056, 0.00311452826971, 0.00109739960772, "(0.001, 0.0, 0.0, 0.0, 0.001, 0.0, 0.0, 0.0, 0.001)", -0.0180824246438, 0.614952022095, -0.0526733160531, "(0.001, 0.0, 0.0, 0.0, 0.001, 0.0, 0.0, 0.0, 0.001)"
1637149417104472977, 14288, 1636513333, 840461015, base_link, 0.00261348620085, -0.013464589473, -0.688796570107, 0.724824916465, "(0.0015203231038320025, 0.0, 0.0, 0.0, 0.0015179816402213775, 0.0, 0.0, 0.0, 0.021187222348119983)", 0.0134119936477, 0.0129110481129, 0.000476068678543, "(0.001, 0.0, 0.0, 0.0, 0.001, 0.0, 0.0, 0.0, 0.001)", 0.644130355787, 0.748499093056, -0.277208030473, "(0.001, 0.0, 0.0, 0.0, 0.001, 0.0, 0.0, 0.0, 0.001)"
1637149417123893486, 14289, 1636513333, 859412908, base_link, 0.00270915725848, -0.0135089581274, -0.688819776271, 0.724801686212, "(0.0015203231038320025, 0.0, 0.0, 0.0, 0.0015179816402213775, 0.0, 0.0, 0.0, 0.021187222348119983)", 0.0141584028755, 0.00745598412614, -0.0032544252181, "(0.001, 0.0, 0.0, 0.0, 0.001, 0.0, 0.0, 0.0, 0.001)", -0.255780066371, 0.464299495773, -0.175528481735, "(0.001, 0.0, 0.0, 0.0, 0.001, 0.0, 0.0, 0.0, 0.001)"
1637149417144447775, 14290, 1636513333, 880402088, base_link, 0.0028362459333, -0.0135095453688, -0.688836216717, 0.724785564448, "(0.0015203231038320025, 0.0, 0.0, 0.0, 0.0015179816402213775, 0.0, 0.0, 0.0, 0.021187222348119983)", 0.0230345852682, 0.0147340162359, -0.00536720767737, "(0.001, 0.0, 0.0, 0.0, 0.001, 0.0, 0.0, 0.0, 0.001)", 0.443105126022, 1.06675654909, -0.0536688307217, "(0.001, 0.0, 0.0, 0.0, 0.001, 0.0, 0.0, 0.0, 0.001)"
1637149417164354647, 14291, 1636513333, 900346994, base_link, 0.00296429255167, -0.0134980467647, -0.688867281156, 0.724755741375, "(0.0015203231038320025, 0.0, 0.0, 0.0, 0.0015179816402213775, 0.0, 0.0, 0.0, 0.021187222348119983)", 0.013315075083, 0.0138452327834, -0.00648249115606, "(0.001, 0.0, 0.0, 0.0, 0.001, 0.0, 0.0, 0.0, 0.001)", 0.34553247794, 0.693233882549, -0.231740998428, "(0.001, 0.0, 0.0, 0.0, 0.001, 0.0, 0.0, 0.0, 0.001)"
1637149417183346223, 14292, 1636513333, 919306993, base_link, 0.00309440222571, -0.0135100528717, -0.68889207655, 0.724731405427, "(0.0015203231038320025, 0.0, 0.0, 0.0, 0.0015179816402213775, 0.0, 0.0, 0.0, 0.021187222348119983)", 0.0228388680992, 0.0212853739352, -0.00824213612988, "(0.001, 0.0, 0.0, 0.0, 0.001, 0.0, 0.0, 0.0, 0.001)", -0.243589154116, 0.92808536515, -0.0727254043152, "(0.001, 0.0, 0.0, 0.0, 0.001, 0.0, 0.0, 0.0, 0.001)"
1637149417204464156, 14293, 1636513333, 940371990, base_link, 0.00323501764302, -0.0135107461662, -0.688906945773, 0.724716644258, "(0.0015203231038320025, 0.0, 0.0, 0.0, 0.0015179816402213775, 0.0, 0.0, 0.0, 0.021187222348119983)", 0.0159961066883, 0.0140702611462, -0.00532167512267, "(0.001, 0.0, 0.0, 0.0, 0.001, 0.0, 0.0, 0.0, 0.001)", 0.486288419987, 0.79118042017, -0.191998172629, "(0.001, 0.0, 0.0, 0.0, 0.001, 0.0, 0.0, 0.0, 0.001)"
1637149417224917562, 14294, 1636513333, 960798025, base_link, 0.00332659831724, -0.0135179689297, -0.688919183044, 0.724704462173, "(0.0015203231038320025, 0.0, 0.0, 0.0, 0.0015179816402213775, 0.0, 0.0, 0.0, 0.021187222348119983)", 0.0202539522904, 0.0172745701525, -0.00500900409773, "(0.001, 0.0, 0.0, 0.0, 0.001, 0.0, 0.0, 0.0, 0.001)", -0.381076802991, 1.15061020471, 0.016048120387, "(0.001, 0.0, 0.0, 0.0, 0.001, 0.0, 0.0, 0.0, 0.001)"
1637149417243693379, 14295, 1636513333, 979618072, base_link, 0.00342583088653, -0.0135484966133, -0.688917390249, 0.724705134061, "(0.0015203231038320025, 0.0, 0.0, 0.0, 0.0015179816402213775, 0.0, 0.0, 0.0, 0.021187222348119983)", 0.0142917665079, 0.00901278428822, -0.00118719054209, "(0.001, 0.0, 0.0, 0.0, 0.001, 0.0, 0.0, 0.0, 0.001)", -0.1894762547, 0.617713758269, -0.0547623457893, "(0.001, 0.0, 0.0, 0.0, 0.001, 0.0, 0.0, 0.0, 0.001)"
1637149417263457899, 14296, 1636513333, 999512910, base_link, 0.00350003338048, -0.0135709147668, -0.688929922862, 0.724692446093, "(0.0015203231038320025, 0.0, 0.0, 0.0, 0.0015179816402213775, 0.0, 0.0, 0.0, 0.021187222348119983)", 0.0183252800616, 0.0095895621702, -0.00402947586301, "(0.001, 0.0, 0.0, 0.0, 0.001, 0.0, 0.0, 0.0, 0.001)", -0.0801736970807, 1.16369938226, -0.187542796866, "(0.001, 0.0, 0.0, 0.0, 0.001, 0.0, 0.0, 0.0, 0.001)"
1637149417284653189, 14297, 1636513334, 20437955, base_link, 0.00354585235306, -0.0136274536612, -0.688936490419, 0.724684918849, "(0.0015203231038320025, 0.0, 0.0, 0.0, 0.0015179816402213775, 0.0, 0.0, 0.0, 0.021187222348119983)", 0.012476546175, 0.00203139717206, -0.00100092389939, "(0.001, 0.0, 0.0, 0.0, 0.001, 0.0, 0.0, 0.0, 0.001)", -1.11701305749, 0.779424190663, -0.0400818273393, "(0.001, 0.0, 0.0, 0.0, 0.001, 0.0, 0.0, 0.0, 0.001)"
1637149417303716125, 14298, 1636513334, 39589881, base_link, 0.00358072767586, -0.0137307176465, -0.688950739944, 0.724669251254, "(0.0015203231038320025, 0.0, 0.0, 0.0, 0.0015179816402213775, 0.0, 0.0, 0.0, 0.021187222348119983)", 0.0205893924854, -0.00663202671653, -0.0045535369506, "(0.001, 0.0, 0.0, 0.0, 0.001, 0.0, 0.0, 0.0, 0.001)", -0.611824191056, 1.17113870999, -0.147988624546, "(0.001, 0.0, 0.0, 0.0, 0.001, 0.0, 0.0, 0.0, 0.001)"
1637149417325105216, 14299, 1636513334, 60628890, base_link, 0.00357166566126, -0.0138248461207, -0.688969129253, 0.724650022957, "(0.0015203231038320025, 0.0, 0.0, 0.0, 0.0015179816402213775, 0.0, 0.0, 0.0, 0.021187222348119983)", 0.0111577481568, -0.00937129104351, -0.00322574897456, "(0.001, 0.0, 0.0, 0.0, 0.001, 0.0, 0.0, 0.0, 0.001)", -0.608980823259, 0.741298166381, 0.331236540647, "(0.001, 0.0, 0.0, 0.0, 0.001, 0.0, 0.0, 0.0, 0.001)"
1637149417343341662, 14300, 1636513334, 79293012, base_link, 0.00355290177095, -0.0139439741082, -0.688955527416, 0.724660764577, "(0.0015203231038320025, 0.0, 0.0, 0.0, 0.0015179816402213775, 0.0, 0.0, 0.0, 0.021187222348119983)", 0.0160186334319, -0.0195337040589, 4.39990652159e-05, "(0.001, 0.0, 0.0, 0.0, 0.001, 0.0, 0.0, 0.0, 0.001)", -0.709644632958, 0.715395352862, 0.0113217829504, "(0.001, 0.0, 0.0, 0.0, 0.001, 0.0, 0.0, 0.0, 0.001)"
1637149417364124051, 14301, 1636513334, 100034952, base_link, 0.00352801159382, -0.0140755813933, -0.688967867071, 0.724646609932, "(0.0015203231038320025, 0.0, 0.0, 0.0, 0.0015179816402213775, 0.0, 0.0, 0.0, 0.021187222348119983)", 0.0117216045317, -0.0176639896516, -0.00163550811376, "(0.001, 0.0, 0.0, 0.0, 0.001, 0.0, 0.0, 0.0, 0.001)", -0.198037528621, 0.811609071728, 0.143594724155, "(0.001, 0.0, 0.0, 0.0, 0.001, 0.0, 0.0, 0.0, 0.001)"
1637149417383916516, 14302, 1636513334, 119935035, base_link, 0.00343572306413, -0.0141837588053, -0.688974085762, 0.724639031478, "(0.0015203231038320025, 0.0, 0.0, 0.0, 0.0015179816402213775, 0.0, 0.0, 0.0, 0.021187222348119983)", 0.00935415859264, -0.0286092405897, -0.00137586955003, "(0.001, 0.0, 0.0, 0.0, 0.001, 0.0, 0.0, 0.0, 0.001)", -0.785194066705, 1.25689885488, 0.770974438323, "(0.001, 0.0, 0.0, 0.0, 0.001, 0.0, 0.0, 0.0, 0.001)"
1637149417403759037, 14303, 1636513334, 139609098, base_link, 0.00335465257742, -0.0143055781784, -0.68897981634, 0.72463156805, "(0.0015203231038320025, 0.0, 0.0, 0.0, 0.0015179816402213775, 0.0, 0.0, 0.0, 0.021187222348119983)", 0.00310650821801, -0.0232167890212, -0.00216796701309, "(0.001, 0.0, 0.0, 0.0, 0.001, 0.0, 0.0, 0.0, 0.001)", 0.0498305829081, 0.479903785644, 0.0304292587119, "(0.001, 0.0, 0.0, 0.0, 0.001, 0.0, 0.0, 0.0, 0.001)"
1637149417427392680, 14304, 1636513334, 162861108, base_link, 0.0032541957646, -0.0144204421838, -0.689001653997, 0.724608985486, "(0.0015203231038320025, 0.0, 0.0, 0.0, 0.0015179816402213775, 0.0, 0.0, 0.0, 0.021187222348119983)", 0.00419114216014, -0.035983912294, -0.00404257924287, "(0.001, 0.0, 0.0, 0.0, 0.001, 0.0, 0.0, 0.0, 0.001)", -0.466249907551, 1.05117581362, 0.504481749413, "(0.001, 0.0, 0.0, 0.0, 0.001, 0.0, 0.0, 0.0, 0.001)"
1637149417444261713, 14305, 1636513334, 180074930, base_link, 0.00314576239599, -0.0145617068518, -0.68901426723, 0.724594645596, "(0.0015203231038320025, 0.0, 0.0, 0.0, 0.0015179816402213775, 0.0, 0.0, 0.0, 0.021187222348119983)", 0.00227837162348, -0.0264328413121, -0.0034320303484, "(0.001, 0.0, 0.0, 0.0, 0.001, 0.0, 0.0, 0.0, 0.001)", 0.00315654233135, 0.630902857801, 0.191601785033, "(0.001, 0.0, 0.0, 0.0, 0.001, 0.0, 0.0, 0.0, 0.001)"
1637149417463263324, 14306, 1636513334, 199251890, base_link, 0.00303640093364, -0.0147050309677, -0.689040241616, 0.724567517742, "(0.0015203231038320025, 0.0, 0.0, 0.0, 0.0015179816402213775, 0.0, 0.0, 0.0, 0.021187222348119983)", 0.00329714044628, -0.042281016386, -0.00717258383935, "(0.001, 0.0, 0.0, 0.0, 0.001, 0.0, 0.0, 0.0, 0.001)", 0.116315142814, 0.684696513134, 0.0432139328365, "(0.001, 0.0, 0.0, 0.0, 0.001, 0.0, 0.0, 0.0, 0.001)"
1637149417484208134, 14307, 1636513334, 220172882, base_link, 0.00293871754724, -0.0148178504254, -0.689066435711, 0.724540711364, "(0.0015203231038320025, 0.0, 0.0, 0.0, 0.0015179816402213775, 0.0, 0.0, 0.0, 0.021187222348119983)", 0.00284279351715, -0.0257350267371, -0.00469657187735, "(0.001, 0.0, 0.0, 0.0, 0.001, 0.0, 0.0, 0.0, 0.001)", -0.124560129187, 0.719052706731, 0.112876260674, "(0.001, 0.0, 0.0, 0.0, 0.001, 0.0, 0.0, 0.0, 0.001)"
1637149417503637250, 14308, 1636513334, 239566087, base_link, 0.00285234757533, -0.014933260406, -0.689092971328, 0.724513449643, "(0.0015203231038320025, 0.0, 0.0, 0.0, 0.0015179816402213775, 0.0, 0.0, 0.0, 0.021187222348119983)", 0.00192095499591, -0.0371640941031, -0.00929240559652, "(0.001, 0.0, 0.0, 0.0, 0.001, 0.0, 0.0, 0.0, 0.001)", 0.78722542587, 0.583279133637, -0.16882144583, "(0.001, 0.0, 0.0, 0.0, 0.001, 0.0, 0.0, 0.0, 0.001)"
1637149417525000747, 14309, 1636513334, 260932922, base_link, 0.00280224286892, -0.0150458202074, -0.689129692327, 0.724476388768, "(0.0015203231038320025, 0.0, 0.0, 0.0, 0.0015179816402213775, 0.0, 0.0, 0.0, 0.021187222348119983)", 0.00548250558929, -0.0204359434798, -0.0064137625719, "(0.001, 0.0, 0.0, 0.0, 0.001, 0.0, 0.0, 0.0, 0.001)", 0.401923846114, 0.229311924064, 0.00470872356747, "(0.001, 0.0, 0.0, 0.0, 0.001, 0.0, 0.0, 0.0, 0.001)"
1637149417543653116, 14310, 1636513334, 279548883, base_link, 0.00281302096684, -0.0151056824272, -0.689159199817, 0.724447032279, "(0.0015203231038320025, 0.0, 0.0, 0.0, 0.0015179816402213775, 0.0, 0.0, 0.0, 0.021187222348119983)", 0.0107010937112, -0.0177463612226, -0.0105638796018, "(0.001, 0.0, 0.0, 0.0, 0.001, 0.0, 0.0, 0.0, 0.001)", 0.852782614874, 0.693952156253, -0.22519798942, "(0.001, 0.0, 0.0, 0.0, 0.001, 0.0, 0.0, 0.0, 0.001)"
1637149417568068563, 14311, 1636513334, 304013967, base_link, 0.00280932201071, -0.0151734777635, -0.689194443739, 0.724412100949, "(0.0015203231038320025, 0.0, 0.0, 0.0, 0.0015179816402213775, 0.0, 0.0, 0.0, 0.021187222348119983)", 0.00701491753528, -0.00995254680675, -0.00769438238654, "(0.001, 0.0, 0.0, 0.0, 0.001, 0.0, 0.0, 0.0, 0.001)", 0.605896805636, 0.577275747003, -0.0558644491483, "(0.001, 0.0, 0.0, 0.0, 0.001, 0.0, 0.0, 0.0, 0.001)"
1637149417585767327, 14312, 1636513334, 321738958, base_link, 0.00289492280982, -0.0151749588236, -0.689225406892, 0.724382273762, "(0.0018971959718401404, 0.0, 0.0, 0.0, 0.0018951406721168795, 0.0, 0.0, 0.0, 0.021612737069517607)", 0.0132767385059, 0.000287820689841, -0.0102306796088, "(0.001, 0.0, 0.0, 0.0, 0.001, 0.0, 0.0, 0.0, 0.001)", 1.27156622792, 0.460827797691, -0.249909851671, "(0.001, 0.0, 0.0, 0.0, 0.001, 0.0, 0.0, 0.0, 0.001)"
1637149417603956015, 14313, 1636513334, 339924097, base_link, 0.00303041460512, -0.0151935741309, -0.689261611125, 0.724346880522, "(0.0017058385242642166, 0.0, 0.0, 0.0, 0.001702854000624976, 0.0, 0.0, 0.0, 0.02153691046594819)", 0.0135764186512, 0.00959915785186, -0.00857537548873, "(0.001, 0.0, 0.0, 0.0, 0.001, 0.0, 0.0, 0.0, 0.001)", 0.99583913573, 0.298387534286, -0.314706237264, "(0.001, 0.0, 0.0, 0.0, 0.001, 0.0, 0.0, 0.0, 0.001)"
1637149417625087416, 14314, 1636513334, 360909938, base_link, 0.00315227081007, -0.0151728094838, -0.689300701832, 0.72430959644, "(0.0017058385242642166, 0.0, 0.0, 0.0, 0.001702854000624976, 0.0, 0.0, 0.0, 0.02153691046594819)", 0.0208505387381, 0.0199071797125, -0.012066494279, "(0.001, 0.0, 0.0, 0.0, 0.001, 0.0, 0.0, 0.0, 0.001)", 0.607333796253, 0.955486657863, 0.0734293072016, "(0.001, 0.0, 0.0, 0.0, 0.001, 0.0, 0.0, 0.0, 0.001)"
1637149417643437859, 14315, 1636513334, 379477024, base_link, 0.00330044849959, -0.0151275109754, -0.689332658977, 0.724279470038, "(0.0017058385242642166, 0.0, 0.0, 0.0, 0.001702854000624976, 0.0, 0.0, 0.0, 0.02153691046594819)", 0.0122694161376, 0.0183703825124, -0.00832515597218, "(0.001, 0.0, 0.0, 0.0, 0.001, 0.0, 0.0, 0.0, 0.001)", 0.781702090037, 0.413566187153, -0.225543604636, "(0.001, 0.0, 0.0, 0.0, 0.001, 0.0, 0.0, 0.0, 0.001)"
1637149417665350592, 14316, 1636513334, 400660037, base_link, 0.00346481244563, -0.0151115378794, -0.689377543897, 0.724236313967, "(0.0017058385242642166, 0.0, 0.0, 0.0, 0.001702854000624976, 0.0, 0.0, 0.0, 0.02153691046594819)", 0.0221166867313, 0.029588608045, -0.0134921720285, "(0.001, 0.0, 0.0, 0.0, 0.001, 0.0, 0.0, 0.0, 0.001)", 0.368104566498, 0.867464618894, -0.365196064734, "(0.001, 0.0, 0.0, 0.0, 0.001, 0.0, 0.0, 0.0, 0.001)"
1637149417685564920, 14317, 1636513334, 421571016, base_link, 0.00363636897309, -0.0150475680194, -0.689427845222, 0.724188921311, "(0.0017058385242642166, 0.0, 0.0, 0.0, 0.001702854000624976, 0.0, 0.0, 0.0, 0.02153691046594819)", 0.0143141517579, 0.0234273320054, -0.0106902401191, "(0.001, 0.0, 0.0, 0.0, 0.001, 0.0, 0.0, 0.0, 0.001)", -0.0643071192631, 0.702863539556, -0.0289619090032, "(0.001, 0.0, 0.0, 0.0, 0.001, 0.0, 0.0, 0.0, 0.001)"
1637149417703512544, 14318, 1636513334, 439477920, base_link, 0.00379615919043, -0.015020145298, -0.689487925021, 0.724131469873, "(0.0017058385242642166, 0.0, 0.0, 0.0, 0.001702854000624976, 0.0, 0.0, 0.0, 0.02153691046594819)", 0.0209592344237, 0.0336295351527, -0.0193230945255, "(0.001, 0.0, 0.0, 0.0, 0.001, 0.0, 0.0, 0.0, 0.001)", 0.0395214777445, 0.834254750632, -0.364044416383, "(0.001, 0.0, 0.0, 0.0, 0.001, 0.0, 0.0, 0.0, 0.001)"
1637149417725822001, 14319, 1636513334, 461496114, base_link, 0.00389970044067, -0.0150178461924, -0.689553244905, 0.724068766813, "(0.0017058385242642166, 0.0, 0.0, 0.0, 0.001702854000624976, 0.0, 0.0, 0.0, 0.02153691046594819)", 0.0134049377668, 0.0156305533225, -0.0134762639386, "(0.001, 0.0, 0.0, 0.0, 0.001, 0.0, 0.0, 0.0, 0.001)", -0.75443505538, 0.663160388505, 0.119376776756, "(0.001, 0.0, 0.0, 0.0, 0.001, 0.0, 0.0, 0.0, 0.001)"
1637149417743974033, 14320, 1636513334, 479820966, base_link, 0.0039809572107, -0.0150122248038, -0.689604941626, 0.724019205251, "(0.0017058385242642166, 0.0, 0.0, 0.0, 0.001702854000624976, 0.0, 0.0, 0.0, 0.02153691046594819)", 0.0151409716568, 0.0177195408953, -0.019524929587, "(0.001, 0.0, 0.0, 0.0, 0.001, 0.0, 0.0, 0.0, 0.001)", -0.322290726576, 0.889142419997, -0.123185984915, "(0.001, 0.0, 0.0, 0.0, 0.001, 0.0, 0.0, 0.0, 0.001)"
1637149417763805714, 14321, 1636513334, 499424934, base_link, 0.0039809572107, -0.0150122248038, -0.689604941626, 0.724019205251, "(0.0017058385242642166, 0.0, 0.0, 0.0, 0.001702854000624976, 0.0, 0.0, 0.0, 0.02153691046594819)", 0.00953069269448, 0.00402073291599, -0.0131235908391, "(0.001, 0.0, 0.0, 0.0, 0.001, 0.0, 0.0, 0.0, 0.001)", -0.523400467014, 0.702903935923, -1.26534625746e-05, "(0.001, 0.0, 0.0, 0.0, 0.001, 0.0, 0.0, 0.0, 0.001)"
1637149417784521869, 14322, 1636513334, 520201921, base_link, 0.00402829913594, -0.0151105584804, -0.689710685247, 0.72391616537, "(0.0017058385242642166, 0.0, 0.0, 0.0, 0.001702854000624976, 0.0, 0.0, 0.0, 0.02153691046594819)", 0.0136743467863, -0.00329382879289, -0.0165739330774, "(0.001, 0.0, 0.0, 0.0, 0.001, 0.0, 0.0, 0.0, 0.001)", -0.958368379589, 0.749238685633, 0.328431802531, "(0.001, 0.0, 0.0, 0.0, 0.001, 0.0, 0.0, 0.0, 0.001)"
1637149417805329129, 14323, 1636513334, 540940999, base_link, 0.00402829913594, -0.0151105584804, -0.689710685247, 0.72391616537, "(0.0017058385242642166, 0.0, 0.0, 0.0, 0.001702854000624976, 0.0, 0.0, 0.0, 0.02153691046594819)", 0.00519107917471, -0.00698664302237, -0.0135189371156, "(0.001, 0.0, 0.0, 0.0, 0.001, 0.0, 0.0, 0.0, 0.001)", -0.291238064335, 0.495099639763, 0.141876327957, "(0.001, 0.0, 0.0, 0.0, 0.001, 0.0, 0.0, 0.0, 0.001)"
1637149417824568428, 14324, 1636513334, 560497999, base_link, 0.00392702875776, -0.0152655478832, -0.689850428987, 0.723780303075, "(0.0017058385242642166, 0.0, 0.0, 0.0, 0.001702854000624976, 0.0, 0.0, 0.0, 0.02153691046594819)", 0.00468712177739, -0.0213929194607, -0.0218331001213, "(0.001, 0.0, 0.0, 0.0, 0.001, 0.0, 0.0, 0.0, 0.001)", -1.40164746649, 0.851598196248, 0.717091011996, "(0.001, 0.0, 0.0, 0.0, 0.001, 0.0, 0.0, 0.0, 0.001)"
1637149417844345469, 14325, 1636513334, 580271005, base_link, 0.00386552513313, -0.0153626025465, -0.689912987852, 0.723718949145, "(0.0017058385242642166, 0.0, 0.0, 0.0, 0.001702854000624976, 0.0, 0.0, 0.0, 0.02153691046594819)", 0.00241985830526, -0.0181210291222, -0.0147221035603, "(0.001, 0.0, 0.0, 0.0, 0.001, 0.0, 0.0, 0.0, 0.001)", -0.261961945309, 0.38483489458, 0.284697321927, "(0.001, 0.0, 0.0, 0.0, 0.001, 0.0, 0.0, 0.0, 0.001)"
1637149417863790392, 14326, 1636513334, 599678993, base_link, 0.00374321622754, -0.0154764362235, -0.690002222179, 0.723632089975, "(0.0017058385242642166, 0.0, 0.0, 0.0, 0.001702854000624976, 0.0, 0.0, 0.0, 0.02153691046594819)", 0.000405321683942, -0.0346665074677, -0.0257480743236, "(0.001, 0.0, 0.0, 0.0, 0.001, 0.0, 0.0, 0.0, 0.001)", -0.93615586926, 0.807929533173, 0.574084096525, "(0.001, 0.0, 0.0, 0.0, 0.001, 0.0, 0.0, 0.0, 0.001)"
1637149417884982303, 14327, 1636513334, 620779037, base_link, 0.00360392570417, -0.0156196099736, -0.690085319944, 0.723550475573, "(0.0017058385242642166, 0.0, 0.0, 0.0, 0.001702854000624976, 0.0, 0.0, 0.0, 0.02153691046594819)", -6.42949625475e-05, -0.0287754728143, -0.0179672426203, "(0.001, 0.0, 0.0, 0.0, 0.001, 0.0, 0.0, 0.0, 0.001)", -0.607402053003, 0.331433506212, 0.430353316795, "(0.001, 0.0, 0.0, 0.0, 0.001, 0.0, 0.0, 0.0, 0.001)"
1637149417903946988, 14328, 1636513334, 639744997, base_link, 0.00345936240359, -0.0157551504753, -0.690188381512, 0.723449933355, "(0.0017058385242642166, 0.0, 0.0, 0.0, 0.001702854000624976, 0.0, 0.0, 0.0, 0.02153691046594819)", -0.00321160871847, -0.0471632308448, -0.0313424213567, "(0.001, 0.0, 0.0, 0.0, 0.001, 0.0, 0.0, 0.0, 0.001)", -0.119325555862, 0.428554870823, 0.2539070138, "(0.001, 0.0, 0.0, 0.0, 0.001, 0.0, 0.0, 0.0, 0.001)"
1637149417925541797, 14329, 1636513334, 661470890, base_link, 0.00328801210136, -0.0159268857819, -0.690303323449, 0.723337296786, "(0.0017058385242642166, 0.0, 0.0, 0.0, 0.001702854000624976, 0.0, 0.0, 0.0, 0.02153691046594819)", -0.000657017926325, -0.0358947775959, -0.0229922013268, "(0.001, 0.0, 0.0, 0.0, 0.001, 0.0, 0.0, 0.0, 0.001)", -0.723141130148, 0.510106583126, 0.161333996212, "(0.001, 0.0, 0.0, 0.0, 0.001, 0.0, 0.0, 0.0, 0.001)"
1637149417943633196, 14330, 1636513334, 679588079, base_link, 0.00315053828773, -0.0161176518789, -0.690423438312, 0.723219034067, "(0.0017058385242642166, 0.0, 0.0, 0.0, 0.001702854000624976, 0.0, 0.0, 0.0, 0.02153691046594819)", 0.00319074661785, -0.0567898244398, -0.038386674054, "(0.001, 0.0, 0.0, 0.0, 0.001, 0.0, 0.0, 0.0, 0.001)", 0.189547438322, 0.740544264452, -0.301899691667, "(0.001, 0.0, 0.0, 0.0, 0.001, 0.0, 0.0, 0.0, 0.001)"
1637149417963959083, 14331, 1636513334, 699907064, base_link, 0.0029756935855, -0.0162862296346, -0.690565140175, 0.723080694768, "(0.0017058385242642166, 0.0, 0.0, 0.0, 0.001702854000624976, 0.0, 0.0, 0.0, 0.02153691046594819)", 6.82691495763e-05, -0.0384762731135, -0.0289146564264, "(0.001, 0.0, 0.0, 0.0, 0.001, 0.0, 0.0, 0.0, 0.001)", -0.0601820406307, 0.575350857072, -0.198631756168, "(0.001, 0.0, 0.0, 0.0, 0.001, 0.0, 0.0, 0.0, 0.001)"
1637149417984982488, 14332, 1636513334, 720891952, base_link, 0.00281569819464, -0.0164857970975, -0.690697930736, 0.722949969786, "(0.0017058385242642166, 0.0, 0.0, 0.0, 0.001702854000624976, 0.0, 0.0, 0.0, 0.02153691046594819)", 0.00307902566531, -0.0604879495757, -0.0434573142301, "(0.001, 0.0, 0.0, 0.0, 0.001, 0.0, 0.0, 0.0, 0.001)", 0.14895655031, 0.873973678763, -0.59351584895, "(0.001, 0.0, 0.0, 0.0, 0.001, 0.0, 0.0, 0.0, 0.001)"
1637149418003644453, 14333, 1636513334, 739607095, base_link, 0.00268678659259, -0.0166728438081, -0.690850833251, 0.722800057868, "(0.0017058385242642166, 0.0, 0.0, 0.0, 0.001702854000624976, 0.0, 0.0, 0.0, 0.02153691046594819)", 0.0034829209066, -0.0385045517669, -0.0325659845762, "(0.001, 0.0, 0.0, 0.0, 0.001, 0.0, 0.0, 0.0, 0.001)", 0.815362367375, 0.545609229775, -0.495011977957, "(0.001, 0.0, 0.0, 0.0, 0.001, 0.0, 0.0, 0.0, 0.001)"
1637149418025721608, 14334, 1636513334, 761629104, base_link, 0.00256825311804, -0.0168071820866, -0.691022690835, 0.722633076642, "(0.0017058385242642166, 0.0, 0.0, 0.0, 0.001702854000624976, 0.0, 0.0, 0.0, 0.02153691046594819)", 0.00369780077339, -0.0490672206177, -0.0526390934127, "(0.001, 0.0, 0.0, 0.0, 0.001, 0.0, 0.0, 0.0, 0.001)", 0.587769286962, 0.950731753665, -0.801301544861, "(0.001, 0.0, 0.0, 0.0, 0.001, 0.0, 0.0, 0.0, 0.001)"
1637149418046493315, 14335, 1636513334, 782412052, base_link, 0.00249729277042, -0.0169234599965, -0.691185520313, 0.722474869141, "(0.0017058385242642166, 0.0, 0.0, 0.0, 0.001702854000624976, 0.0, 0.0, 0.0, 0.02153691046594819)", 0.00330124364922, -0.0256102930107, -0.036682256822, "(0.001, 0.0, 0.0, 0.0, 0.001, 0.0, 0.0, 0.0, 0.001)", 1.05469633417, 0.70069689632, -0.491051489885, "(0.001, 0.0, 0.0, 0.0, 0.001, 0.0, 0.0, 0.0, 0.001)"
1637149418064555031, 14336, 1636513334, 800575017, base_link, 0.0024037297687, -0.0169922493819, -0.691387411663, 0.722280369758, "(0.0017058385242642166, 0.0, 0.0, 0.0, 0.001702854000624976, 0.0, 0.0, 0.0, 0.02153691046594819)", -0.000294248502172, -0.0335729953139, -0.0607814973663, "(0.001, 0.0, 0.0, 0.0, 0.001, 0.0, 0.0, 0.0, 0.001)", 1.09730178535, 1.00712356615, -0.336035265953, "(0.001, 0.0, 0.0, 0.0, 0.001, 0.0, 0.0, 0.0, 0.001)"
1637149418084412980, 14337, 1636513334, 820343017, base_link, 0.00234889272741, -0.0170278313109, -0.691579430254, 0.722095857427, "(0.0017058385242642166, 0.0, 0.0, 0.0, 0.001702854000624976, 0.0, 0.0, 0.0, 0.02153691046594819)", -0.00198981008202, -0.0139762043106, -0.0421991043693, "(0.001, 0.0, 0.0, 0.0, 0.001, 0.0, 0.0, 0.0, 0.001)", 0.612690023661, 0.314769739713, -0.0921085909686, "(0.001, 0.0, 0.0, 0.0, 0.001, 0.0, 0.0, 0.0, 0.001)"
1637149418104753274, 14338, 1636513334, 840671062, base_link, 0.00228834460598, -0.0170417754619, -0.691804920969, 0.721879694056, "(0.0017058385242642166, 0.0, 0.0, 0.0, 0.001702854000624976, 0.0, 0.0, 0.0, 0.02153691046594819)", -0.00648707573961, -0.0173922721534, -0.0698044306175, "(0.001, 0.0, 0.0, 0.0, 0.001, 0.0, 0.0, 0.0, 0.001)", 1.08402650603, 0.663358732231, 0.0395135908541, "(0.001, 0.0, 0.0, 0.0, 0.001, 0.0, 0.0, 0.0, 0.001)"
1637149418123496259, 14339, 1636513334, 859335899, base_link, 0.00228834460598, -0.0170417754619, -0.691804920969, 0.721879694056, "(0.0017058385242642166, 0.0, 0.0, 0.0, 0.001702854000624976, 0.0, 0.0, 0.0, 0.02153691046594819)", -0.00688468723383, -0.0085613733423, -0.0501286091215, "(0.001, 0.0, 0.0, 0.0, 0.001, 0.0, 0.0, 0.0, 0.001)", 0.304740570457, 0.526062075224, 0.241835235326, "(0.001, 0.0, 0.0, 0.0, 0.001, 0.0, 0.0, 0.0, 0.001)"
1637149418144584962, 14340, 1636513334, 880425930, base_link, 0.00219837897397, -0.0170207704796, -0.692285700556, 0.721419412899, "(0.0017058385242642166, 0.0, 0.0, 0.0, 0.001702854000624976, 0.0, 0.0, 0.0, 0.02153691046594819)", -0.010483663756, -0.00631166314006, -0.0785201401195, "(0.001, 0.0, 0.0, 0.0, 0.001, 0.0, 0.0, 0.0, 0.001)", 0.804728037037, 0.526298814666, 0.0757385123918, "(0.001, 0.0, 0.0, 0.0, 0.001, 0.0, 0.0, 0.0, 0.001)"
1637149418163787381, 14341, 1636513334, 899734973, base_link, 0.00218124549395, -0.0169596713395, -0.692568835326, 0.721149096963, "(0.0017058385242642166, 0.0, 0.0, 0.0, 0.001702854000624976, 0.0, 0.0, 0.0, 0.02153691046594819)", -0.00770355112657, 0.000543178294038, -0.0589474192493, "(0.001, 0.0, 0.0, 0.0, 0.001, 0.0, 0.0, 0.0, 0.001)", 0.458277922896, 0.369047672468, 0.202661131188, "(0.001, 0.0, 0.0, 0.0, 0.001, 0.0, 0.0, 0.0, 0.001)"
1637149418183518177, 14342, 1636513334, 919500112, base_link, 0.00218046048098, -0.0169039180824, -0.692859636894, 0.720871019468, "(0.0017058385242642166, 0.0, 0.0, 0.0, 0.001702854000624976, 0.0, 0.0, 0.0, 0.02153691046594819)", -0.0108314705673, 0.00648009654245, -0.0928397791548, "(0.001, 0.0, 0.0, 0.0, 0.001, 0.0, 0.0, 0.0, 0.001)", 0.168498790211, 0.459445132165, 0.29857284402, "(0.001, 0.0, 0.0, 0.0, 0.001, 0.0, 0.0, 0.0, 0.001)"
1637149418205295057, 14343, 1636513334, 941302061, base_link, 0.00221500157646, -0.0168521299122, -0.693167532199, 0.720576069399, "(0.0017058385242642166, 0.0, 0.0, 0.0, 0.001702854000624976, 0.0, 0.0, 0.0, 0.02153691046594819)", -0.00538108083734, 0.00643002122228, -0.0670682652733, "(0.001, 0.0, 0.0, 0.0, 0.001, 0.0, 0.0, 0.0, 0.001)", 0.707710001243, 0.183673241759, 0.0344719198342, "(0.001, 0.0, 0.0, 0.0, 0.001, 0.0, 0.0, 0.0, 0.001)"
1637149418225146053, 14344, 1636513334, 960752964, base_link, 0.00225028485755, -0.0167612151461, -0.693499645249, 0.72025845356, "(0.0017058385242642166, 0.0, 0.0, 0.0, 0.001702854000624976, 0.0, 0.0, 0.0, 0.02153691046594819)", -0.00826809653583, 0.0168721667357, -0.104941787425, "(0.001, 0.0, 0.0, 0.0, 0.001, 0.0, 0.0, 0.0, 0.001)", 0.222408734874, 0.356351858578, 0.421919883229, "(0.001, 0.0, 0.0, 0.0, 0.001, 0.0, 0.0, 0.0, 0.001)"
1637149418244805961, 14345, 1636513334, 979887008, base_link, 0.00230727979893, -0.0166883223397, -0.693833020105, 0.719938828353, "(0.0017058385242642166, 0.0, 0.0, 0.0, 0.001702854000624976, 0.0, 0.0, 0.0, 0.02153691046594819)", -0.00340639429283, 0.0123634265443, -0.0734549583082, "(0.001, 0.0, 0.0, 0.0, 0.001, 0.0, 0.0, 0.0, 0.001)", 0.326632156942, 0.308890291604, 0.0552615943526, "(0.001, 0.0, 0.0, 0.0, 0.001, 0.0, 0.0, 0.0, 0.001)"
1637149418263601841, 14346, 1636513334, 999558925, base_link, 0.00232121959881, -0.0166243620329, -0.694215426923, 0.71957152775, "(0.0017058385242642166, 0.0, 0.0, 0.0, 0.001702854000624976, 0.0, 0.0, 0.0, 0.02153691046594819)", -0.00747979392673, 0.0146441629745, -0.11945526504, "(0.001, 0.0, 0.0, 0.0, 0.001, 0.0, 0.0, 0.0, 0.001)", 0.219677653083, 0.576082152108, 0.319511328522, "(0.001, 0.0, 0.0, 0.0, 0.001, 0.0, 0.0, 0.0, 0.001)"
1637149418285518901, 14347, 1636513335, 21502017, base_link, 0.00233427826835, -0.0165635129309, -0.694588876315, 0.719212412354, "(0.0017058385242642166, 0.0, 0.0, 0.0, 0.001702854000624976, 0.0, 0.0, 0.0, 0.02153691046594819)", -0.00560502758552, 0.00887040806219, -0.0817760104614, "(0.001, 0.0, 0.0, 0.0, 0.001, 0.0, 0.0, 0.0, 0.001)", -0.253646785886, -0.00948728052384, 0.0244353080483, "(0.001, 0.0, 0.0, 0.0, 0.001, 0.0, 0.0, 0.0, 0.001)"
1637149418303218275, 14348, 1636513335, 39165019, base_link, 0.00234231423895, -0.0165441990394, -0.695018275558, 0.718797885141, "(0.0017058385242642166, 0.0, 0.0, 0.0, 0.001702854000624976, 0.0, 0.0, 0.0, 0.02153691046594819)", -0.00580939740863, 0.00668423701748, -0.134704003042, "(0.001, 0.0, 0.0, 0.0, 0.001, 0.0, 0.0, 0.0, 0.001)", 0.298544219007, 0.4368546794, 0.159352555895, "(0.001, 0.0, 0.0, 0.0, 0.001, 0.0, 0.0, 0.0, 0.001)"
1637149418324301476, 14349, 1636513335, 60297012, base_link, 0.00230062339437, -0.0165099690363, -0.695456217277, 0.71837509555, "(0.0017058385242642166, 0.0, 0.0, 0.0, 0.001702854000624976, 0.0, 0.0, 0.0, 0.02153691046594819)", -0.00722211142951, 0.000291280260153, -0.0945668271403, "(0.001, 0.0, 0.0, 0.0, 0.001, 0.0, 0.0, 0.0, 0.001)", -0.316137717225, 0.368011260882, 0.126225794838, "(0.001, 0.0, 0.0, 0.0, 0.001, 0.0, 0.0, 0.0, 0.001)"
1637149418344851960, 14350, 1636513335, 80837011, base_link, 0.00225078553093, -0.0165395827691, -0.695933013419, 0.717912680623, "(0.0017058385242642166, 0.0, 0.0, 0.0, 0.001702854000624976, 0.0, 0.0, 0.0, 0.02153691046594819)", -0.0087924768764, -0.008696436652, -0.151839067485, "(0.001, 0.0, 0.0, 0.0, 0.001, 0.0, 0.0, 0.0, 0.001)", -0.337359603998, 0.20311604108, -0.171724613827, "(0.001, 0.0, 0.0, 0.0, 0.001, 0.0, 0.0, 0.0, 0.001)"
1637149418363863189, 14351, 1636513335, 99793910, base_link, 0.00216230475226, -0.0165622182392, -0.696454694398, 0.717406353482, "(0.0017058385242642166, 0.0, 0.0, 0.0, 0.001702854000624976, 0.0, 0.0, 0.0, 0.02153691046594819)", -0.00721844741921, -0.0117810219938, -0.110726826685, "(0.001, 0.0, 0.0, 0.0, 0.001, 0.0, 0.0, 0.0, 0.001)", -0.168064929267, 0.171955288959, -0.124185989093, "(0.001, 0.0, 0.0, 0.0, 0.001, 0.0, 0.0, 0.0, 0.001)"
1637149418384583213, 14352, 1636513335, 120501995, base_link, 0.00211603206171, -0.0165986609908, -0.697017726249, 0.716858630524, "(0.0017058385242642166, 0.0, 0.0, 0.0, 0.001702854000624976, 0.0, 0.0, 0.0, 0.02153691046594819)", -0.00651487633843, -0.0171905514842, -0.178422697013, "(0.001, 0.0, 0.0, 0.0, 0.001, 0.0, 0.0, 0.0, 0.001)", -0.340469297041, 0.0898887894594, -0.35625136976, "(0.001, 0.0, 0.0, 0.0, 0.001, 0.0, 0.0, 0.0, 0.001)"
1637149418405430815, 14353, 1636513335, 141344070, base_link, 0.00206298603622, -0.0166695322554, -0.697614702255, 0.716276202299, "(0.0017058385242642166, 0.0, 0.0, 0.0, 0.001702854000624976, 0.0, 0.0, 0.0, 0.02153691046594819)", -0.0019135498825, -0.0144180549919, -0.129656192267, "(0.001, 0.0, 0.0, 0.0, 0.001, 0.0, 0.0, 0.0, 0.001)", 0.432070032419, -0.0106682368322, -0.454879931244, "(0.001, 0.0, 0.0, 0.0, 0.001, 0.0, 0.0, 0.0, 0.001)"
1637149418424946099, 14354, 1636513335, 159451961, base_link, 0.00203658386716, -0.0167138531346, -0.698248689489, 0.715657227355, "(0.0017058385242642166, 0.0, 0.0, 0.0, 0.001702854000624976, 0.0, 0.0, 0.0, 0.02153691046594819)", 0.00116673426712, -0.0189604465641, -0.203534734441, "(0.001, 0.0, 0.0, 0.0, 0.001, 0.0, 0.0, 0.0, 0.001)", 0.293744795785, 0.0215258412645, -0.0386975525367, "(0.001, 0.0, 0.0, 0.0, 0.001, 0.0, 0.0, 0.0, 0.001)"
1637149418445184051, 14355, 1636513335, 181154966, base_link, 0.00205272884623, -0.016727589886, -0.698908111695, 0.715012884812, "(0.0017058385242642166, 0.0, 0.0, 0.0, 0.001702854000624976, 0.0, 0.0, 0.0, 0.02153691046594819)", 9.60853682578e-05, -0.00550581260881, -0.144398088981, "(0.001, 0.0, 0.0, 0.0, 0.001, 0.0, 0.0, 0.0, 0.001)", 0.922265303752, -0.0925349218997, -0.360539430746, "(0.001, 0.0, 0.0, 0.0, 0.001, 0.0, 0.0, 0.0, 0.001)"
1637149418463342280, 14356, 1636513335, 199295043, base_link, 0.00207171793091, -0.0167344493052, -0.699617134448, 0.714318928335, "(0.0017058385242642166, 0.0, 0.0, 0.0, 0.001702854000624976, 0.0, 0.0, 0.0, 0.02153691046594819)", 0.00219713739956, -0.00346199662099, -0.228301346465, "(0.001, 0.0, 0.0, 0.0, 0.001, 0.0, 0.0, 0.0, 0.001)", 0.856607013891, 0.290991930589, 0.0935689018843, "(0.001, 0.0, 0.0, 0.0, 0.001, 0.0, 0.0, 0.0, 0.001)"
1637149418483575991, 14357, 1636513335, 219553947, base_link, 0.00213294978231, -0.0166612025402, -0.700324474589, 0.713626993006, "(0.0017058385242642166, 0.0, 0.0, 0.0, 0.001702854000624976, 0.0, 0.0, 0.0, 0.02153691046594819)", -0.000987628209725, 0.00697543937477, -0.157200174557, "(0.001, 0.0, 0.0, 0.0, 0.001, 0.0, 0.0, 0.0, 0.001)", 0.912479703544, 0.207314839997, 0.307050995545, "(0.001, 0.0, 0.0, 0.0, 0.001, 0.0, 0.0, 0.0, 0.001)"
