time, .header.seq, .header.stamp.secs, .header.stamp.nsecs, .header.frame_id, .orientation.x, .orientation.y, .orientation.z, .orientation.w, .orientation_covariance, .angular_velocity.x, .angular_velocity.y, .angular_velocity.z, .angular_velocity_covariance, .linear_acceleration.x, .linear_acceleration.y, .linear_acceleration.z, .linear_acceleration_covariance
1604566970180466738, 41178, 1604566970, 180387020, base_link, 0.0100418760961, -0.00659749167724, -0.127687474737, 0.991741671315, "(0.0027887814330915944, 0.0, 0.0, 0.0, 0.0025135587213620525, 0.0, 0.0, 0.0, 0.005861298690805816)", 0.000762287885404, 0.00656658279897, 0.0334574965183, "(0.001, 0.0, 0.0, 0.0, 0.001, 0.0, 0.0, 0.0, 0.001)", 0.217673641672, 0.351004582054, 0.0209664549088, "(0.001, 0.0, 0.0, 0.0, 0.001, 0.0, 0.0, 0.0, 0.001)"
1604566970200656517, 41179, 1604566970, 200552940, base_link, 0.0100418760961, -0.00659749167724, -0.127687474737, 0.991741671315, "(0.0027887814330915944, 0.0, 0.0, 0.0, 0.0025135587213620525, 0.0, 0.0, 0.0, 0.005861298690805816)", -0.00105134905388, 0.00634242067092, 0.0209832341975, "(0.001, 0.0, 0.0, 0.0, 0.001, 0.0, 0.0, 0.0, 0.001)", 0.109800820989, 0.287927389888, 0.261714637526, "(0.001, 0.0, 0.0, 0.0, 0.001, 0.0, 0.0, 0.0, 0.001)"
1604566970219889076, 41180, 1604566970, 219801902, base_link, 0.0100149488132, -0.00648718424922, -0.127421159894, 0.991776923129, "(0.0027887814330915944, 0.0, 0.0, 0.0, 0.0025135587213620525, 0.0, 0.0, 0.0, 0.005861298690805816)", -0.0041396539671, 0.0138897413316, 0.0332392852652, "(0.001, 0.0, 0.0, 0.0, 0.001, 0.0, 0.0, 0.0, 0.001)", -0.350680642239, 0.0891120957828, 0.167035367614, "(0.001, 0.0, 0.0, 0.0, 0.001, 0.0, 0.0, 0.0, 0.001)"
1604566970241277865, 41181, 1604566970, 241168975, base_link, 0.00997556156669, -0.00646152420276, -0.127293579193, 0.991793870506, "(0.0027887814330915944, 0.0, 0.0, 0.0, 0.0025135587213620525, 0.0, 0.0, 0.0, 0.005861298690805816)", -0.00520584255569, 0.00550756018471, 0.0207126428138, "(0.001, 0.0, 0.0, 0.0, 0.001, 0.0, 0.0, 0.0, 0.001)", -0.0528851859434, 0.27726525057, -0.0137040215565, "(0.001, 0.0, 0.0, 0.0, 0.001, 0.0, 0.0, 0.0, 0.001)"
1604566970259488706, 41182, 1604566970, 259394884, base_link, 0.00995146027544, -0.00646080073681, -0.127169396613, 0.991810047871, "(0.0027887814330915944, 0.0, 0.0, 0.0, 0.0025135587213620525, 0.0, 0.0, 0.0, 0.005861298690805816)", -0.00722661176612, 0.00431228019923, 0.0309041079214, "(0.001, 0.0, 0.0, 0.0, 0.001, 0.0, 0.0, 0.0, 0.001)", -0.805480275248, 0.222179301028, 0.366368554669, "(0.001, 0.0, 0.0, 0.0, 0.001, 0.0, 0.0, 0.0, 0.001)"
1604566970280054042, 41183, 1604566970, 279927015, base_link, 0.00995146027544, -0.00646080073681, -0.127169396613, 0.991810047871, "(0.0027887814330915944, 0.0, 0.0, 0.0, 0.0025135587213620525, 0.0, 0.0, 0.0, 0.005861298690805816)", -0.00433762325682, -0.00253106207436, 0.0205487075618, "(0.001, 0.0, 0.0, 0.0, 0.001, 0.0, 0.0, 0.0, 0.001)", -0.005753614402, 0.0201535233021, -0.339381947838, "(0.001, 0.0, 0.0, 0.0, 0.001, 0.0, 0.0, 0.0, 0.001)"
1604566970300614299, 41184, 1604566970, 300091981, base_link, 0.0099262567107, -0.00648139465056, -0.127038607625, 0.991826927001, "(0.0027887814330915944, 0.0, 0.0, 0.0, 0.0025135587213620525, 0.0, 0.0, 0.0, 0.005861298690805816)", -0.000775476914663, -0.00601168575987, 0.0295449930181, "(0.001, 0.0, 0.0, 0.0, 0.001, 0.0, 0.0, 0.0, 0.001)", -0.741846169347, 0.0958554310371, 0.111303275456, "(0.001, 0.0, 0.0, 0.0, 0.001, 0.0, 0.0, 0.0, 0.001)"
1604566970320212015, 41185, 1604566970, 318871974, base_link, 0.00993342058417, -0.00652625625059, -0.126925521161, 0.991841039286, "(0.0027887814330915944, 0.0, 0.0, 0.0, 0.0025135587213620525, 0.0, 0.0, 0.0, 0.005861298690805816)", 4.47467429754e-05, -0.00607940795503, 0.0206209976285, "(0.001, 0.0, 0.0, 0.0, 0.001, 0.0, 0.0, 0.0, 0.001)", 0.0578162323044, -0.0242033178421, -0.333564756728, "(0.001, 0.0, 0.0, 0.0, 0.001, 0.0, 0.0, 0.0, 0.001)"
1604566970339510304, 41186, 1604566970, 339339971, base_link, 0.0099287539384, -0.00665716445203, -0.126645765724, 0.991875976133, "(0.0027887814330915944, 0.0, 0.0, 0.0, 0.0025135587213620525, 0.0, 0.0, 0.0, 0.005861298690805816)", 0.00162822329105, -0.0153930916187, 0.033227359927, "(0.001, 0.0, 0.0, 0.0, 0.001, 0.0, 0.0, 0.0, 0.001)", -0.749315910556, 0.355301699542, -0.0789680199201, "(0.001, 0.0, 0.0, 0.0, 0.001, 0.0, 0.0, 0.0, 0.001)"
1604566970360312499, 41187, 1604566970, 360213994, base_link, 0.00993242055701, -0.00676362977788, -0.126496471318, 0.991894270111, "(0.0027887814330915944, 0.0, 0.0, 0.0, 0.0025135587213620525, 0.0, 0.0, 0.0, 0.005861298690805816)", 0.00268479207829, -0.0145413661867, 0.0236424838905, "(0.001, 0.0, 0.0, 0.0, 0.001, 0.0, 0.0, 0.0, 0.001)", -0.308646798773, 0.334326270194, -0.120304770411, "(0.001, 0.0, 0.0, 0.0, 0.001, 0.0, 0.0, 0.0, 0.001)"
1604566970379707188, 41188, 1604566970, 379594087, base_link, 0.00992728099583, -0.00688104444096, -0.126337504588, 0.991913774102, "(0.0027887814330915944, 0.0, 0.0, 0.0, 0.0025135587213620525, 0.0, 0.0, 0.0, 0.005861298690805816)", 0.00299801912367, -0.0269001520556, 0.0365307876317, "(0.001, 0.0, 0.0, 0.0, 0.001, 0.0, 0.0, 0.0, 0.001)", 0.0889176759877, 0.299965380992, -0.201550155973, "(0.001, 0.0, 0.0, 0.0, 0.001, 0.0, 0.0, 0.0, 0.001)"
1604566970400705491, 41189, 1604566970, 400543928, base_link, 0.00996297666846, -0.00692624584498, -0.126154926958, 0.991936338995, "(0.0027887814330915944, 0.0, 0.0, 0.0, 0.0025135587213620525, 0.0, 0.0, 0.0, 0.005861298690805816)", 0.0044249456185, -0.0105963451788, 0.0280643904737, "(0.001, 0.0, 0.0, 0.0, 0.001, 0.0, 0.0, 0.0, 0.001)", 0.161824404168, 0.136056199125, -0.0454481577032, "(0.001, 0.0, 0.0, 0.0, 0.001, 0.0, 0.0, 0.0, 0.001)"
1604566970420197247, 41190, 1604566970, 420109033, base_link, 0.0100080986965, -0.00697094861023, -0.125950253803, 0.991961580608, "(0.0027887814330915944, 0.0, 0.0, 0.0, 0.0025135587213620525, 0.0, 0.0, 0.0, 0.005861298690805816)", 0.0107353589042, -0.0115171639922, 0.0458229535732, "(0.001, 0.0, 0.0, 0.0, 0.001, 0.0, 0.0, 0.0, 0.001)", 0.409956499823, 0.292065065157, -0.490720842987, "(0.001, 0.0, 0.0, 0.0, 0.001, 0.0, 0.0, 0.0, 0.001)"
1604566970440468833, 41191, 1604566970, 440360069, base_link, 0.0100667707438, -0.00700696613484, -0.125747923474, 0.991986402273, "(0.0027887814330915944, 0.0, 0.0, 0.0, 0.0025135587213620525, 0.0, 0.0, 0.0, 0.005861298690805816)", 0.00917995491658, -0.00446507684664, 0.0326020434734, "(0.001, 0.0, 0.0, 0.0, 0.001, 0.0, 0.0, 0.0, 0.001)", -0.256673143035, 0.19278316047, 0.16047795941, "(0.001, 0.0, 0.0, 0.0, 0.001, 0.0, 0.0, 0.0, 0.001)"
1604566970459515745, 41192, 1604566970, 459429025, base_link, 0.0101098360237, -0.0070475937031, -0.125503465236, 0.992016634363, "(0.0027887814330915944, 0.0, 0.0, 0.0, 0.0025135587213620525, 0.0, 0.0, 0.0, 0.005861298690805816)", 0.0128621681786, -0.00817903176951, 0.053744609858, "(0.001, 0.0, 0.0, 0.0, 0.001, 0.0, 0.0, 0.0, 0.001)", 0.552138399904, 0.391588751945, -0.43341358491, "(0.001, 0.0, 0.0, 0.0, 0.001, 0.0, 0.0, 0.0, 0.001)"
1604566970479625522, 41193, 1604566970, 479525089, base_link, 0.0101784516502, -0.00708090227252, -0.125280055407, 0.992043934341, "(0.0027887814330915944, 0.0, 0.0, 0.0, 0.0025135587213620525, 0.0, 0.0, 0.0, 0.005861298690805816)", 0.0102988837725, -0.00343782053666, 0.0368285257407, "(0.001, 0.0, 0.0, 0.0, 0.001, 0.0, 0.0, 0.0, 0.001)", -0.189895507799, 0.279831168335, 0.150771094766, "(0.001, 0.0, 0.0, 0.0, 0.001, 0.0, 0.0, 0.0, 0.001)"
1604566970500543933, 41194, 1604566970, 500401020, base_link, 0.0102446143307, -0.00710388669635, -0.125029112811, 0.992074746993, "(0.0027887814330915944, 0.0, 0.0, 0.0, 0.0025135587213620525, 0.0, 0.0, 0.0, 0.005861298690805816)", 0.0161585724548, -0.00483100971037, 0.0579923094285, "(0.001, 0.0, 0.0, 0.0, 0.001, 0.0, 0.0, 0.0, 0.001)", 0.114168574244, 0.405886999946, -0.29943837477, "(0.001, 0.0, 0.0, 0.0, 0.001, 0.0, 0.0, 0.0, 0.001)"
1604566970520096588, 41195, 1604566970, 520019054, base_link, 0.0102935186814, -0.0071584142675, -0.124797170365, 0.992103052534, "(0.0027887814330915944, 0.0, 0.0, 0.0, 0.0025135587213620525, 0.0, 0.0, 0.0, 0.005861298690805816)", 0.00959055787595, -0.00471972333257, 0.037880210832, "(0.001, 0.0, 0.0, 0.0, 0.001, 0.0, 0.0, 0.0, 0.001)", -0.255689870237, 0.199517115586, 0.0689670564651, "(0.001, 0.0, 0.0, 0.0, 0.001, 0.0, 0.0, 0.0, 0.001)"
1604566970539849021, 41196, 1604566970, 539766073, base_link, 0.0103626453498, -0.00719817022604, -0.124563005008, 0.992131472996, "(0.0027887814330915944, 0.0, 0.0, 0.0, 0.0025135587213620525, 0.0, 0.0, 0.0, 0.005861298690805816)", 0.0164576972439, -0.00742066531754, 0.0566320474936, "(0.001, 0.0, 0.0, 0.0, 0.001, 0.0, 0.0, 0.0, 0.001)", -0.186604830411, 0.404344066911, -0.100972732494, "(0.001, 0.0, 0.0, 0.0, 0.001, 0.0, 0.0, 0.0, 0.001)"
1604566970560614959, 41197, 1604566970, 560470104, base_link, 0.0104390025276, -0.00725850900321, -0.12433798283, 0.992158458765, "(0.0027887814330915944, 0.0, 0.0, 0.0, 0.0025135587213620525, 0.0, 0.0, 0.0, 0.005861298690805816)", 0.012893150083, -0.00743250614209, 0.0368468954248, "(0.001, 0.0, 0.0, 0.0, 0.001, 0.0, 0.0, 0.0, 0.001)", -0.0059907638351, 0.29252892807, -0.0222379386904, "(0.001, 0.0, 0.0, 0.0, 0.001, 0.0, 0.0, 0.0, 0.001)"
1604566970579840007, 41198, 1604566970, 579694986, base_link, 0.0104916927212, -0.00729657470167, -0.124121502552, 0.992184729264, "(0.0027887814330915944, 0.0, 0.0, 0.0, 0.0025135587213620525, 0.0, 0.0, 0.0, 0.005861298690805816)", 0.0169140415919, -0.00717844300943, 0.0538673613985, "(0.001, 0.0, 0.0, 0.0, 0.001, 0.0, 0.0, 0.0, 0.001)", -0.511399093399, 0.713757623337, 0.257195392174, "(0.001, 0.0, 0.0, 0.0, 0.001, 0.0, 0.0, 0.0, 0.001)"
1604566970601730190, 41199, 1604566970, 601609945, base_link, 0.0105313856522, -0.00734718387165, -0.123903334852, 0.992211203534, "(0.0027887814330915944, 0.0, 0.0, 0.0, 0.0025135587213620525, 0.0, 0.0, 0.0, 0.005861298690805816)", 0.00820173568944, -0.00710954146509, 0.0347746203115, "(0.001, 0.0, 0.0, 0.0, 0.001, 0.0, 0.0, 0.0, 0.001)", 0.0634109039043, 0.572289376726, -0.0103174803632, "(0.001, 0.0, 0.0, 0.0, 0.001, 0.0, 0.0, 0.0, 0.001)"
1604566970619734671, 41200, 1604566970, 619637012, base_link, 0.0105453323312, -0.00739176176298, -0.123692525188, 0.992237026641, "(0.0027887814330915944, 0.0, 0.0, 0.0, 0.0025135587213620525, 0.0, 0.0, 0.0, 0.005861298690805816)", 0.00823294083683, -0.00946203498115, 0.0523889675955, "(0.001, 0.0, 0.0, 0.0, 0.001, 0.0, 0.0, 0.0, 0.001)", -0.415861847039, 0.365235068033, 0.464371288551, "(0.001, 0.0, 0.0, 0.0, 0.001, 0.0, 0.0, 0.0, 0.001)"
1604566970638628417, 41201, 1604566970, 638499021, base_link, 0.0105453323312, -0.00739176176298, -0.123692525188, 0.992237026641, "(0.0027887814330915944, 0.0, 0.0, 0.0, 0.0025135587213620525, 0.0, 0.0, 0.0, 0.005861298690805816)", 0.00346511983748, -0.00454917026066, 0.0353293187839, "(0.001, 0.0, 0.0, 0.0, 0.001, 0.0, 0.0, 0.0, 0.001)", 0.373033527763, 0.196122210395, 0.0854186631803, "(0.001, 0.0, 0.0, 0.0, 0.001, 0.0, 0.0, 0.0, 0.001)"
1604566970659880115, 41202, 1604566970, 659770965, base_link, 0.0105709822379, -0.00744102192842, -0.123247742508, 0.992291731042, "(0.0027887814330915944, 0.0, 0.0, 0.0, 0.0025135587213620525, 0.0, 0.0, 0.0, 0.005861298690805816)", 0.00557800692292, -0.0052217458039, 0.0529712472141, "(0.001, 0.0, 0.0, 0.0, 0.001, 0.0, 0.0, 0.0, 0.001)", -0.311937478691, 0.405183705008, 0.519567320527, "(0.001, 0.0, 0.0, 0.0, 0.001, 0.0, 0.0, 0.0, 0.001)"
1604566970680497772, 41203, 1604566970, 680401086, base_link, 0.0105804120375, -0.00744236066622, -0.123010883995, 0.992321010847, "(0.0027887814330915944, 0.0, 0.0, 0.0, 0.0025135587213620525, 0.0, 0.0, 0.0, 0.005861298690805816)", 0.00251622249026, -0.00215587477656, 0.0371200893247, "(0.001, 0.0, 0.0, 0.0, 0.001, 0.0, 0.0, 0.0, 0.001)", 0.03511419638, 0.334779789749, 0.121589216136, "(0.001, 0.0, 0.0, 0.0, 0.001, 0.0, 0.0, 0.0, 0.001)"
1604566970701257180, 41204, 1604566970, 701165914, base_link, 0.0105529096899, -0.00751057076838, -0.122770380627, 0.992350573671, "(0.0027887814330915944, 0.0, 0.0, 0.0, 0.0025135587213620525, 0.0, 0.0, 0.0, 0.005861298690805816)", -0.000408270555341, -0.00967019182665, 0.0568810442048, "(0.001, 0.0, 0.0, 0.0, 0.001, 0.0, 0.0, 0.0, 0.001)", -0.334640658776, 0.626860502591, 0.464682390226, "(0.001, 0.0, 0.0, 0.0, 0.001, 0.0, 0.0, 0.0, 0.001)"
1604566970720581760, 41205, 1604566970, 720488071, base_link, 0.0105415286106, -0.00754621503111, -0.122506135546, 0.992383080049, "(0.0027887814330915944, 0.0, 0.0, 0.0, 0.0025135587213620525, 0.0, 0.0, 0.0, 0.005861298690805816)", -0.00129012444517, -0.00508347294491, 0.0411519856575, "(0.001, 0.0, 0.0, 0.0, 0.001, 0.0, 0.0, 0.0, 0.001)", -0.017150463336, 0.0604697615685, 0.172285956297, "(0.001, 0.0, 0.0, 0.0, 0.001, 0.0, 0.0, 0.0, 0.001)"
1604566970739737612, 41206, 1604566970, 739648103, base_link, 0.0105168880149, -0.00760302091321, -0.122224032153, 0.992417691853, "(0.0027887814330915944, 0.0, 0.0, 0.0, 0.0025135587213620525, 0.0, 0.0, 0.0, 0.005861298690805816)", -0.00280557636328, -0.0121935849323, 0.0648335047258, "(0.001, 0.0, 0.0, 0.0, 0.001, 0.0, 0.0, 0.0, 0.001)", -0.104844723491, 0.329672336497, 0.128112461055, "(0.001, 0.0, 0.0, 0.0, 0.001, 0.0, 0.0, 0.0, 0.001)"
1604566970760249908, 41207, 1604566970, 760123014, base_link, 0.0104989870564, -0.0076733656504, -0.121926198839, 0.992453975138, "(0.0027887814330915944, 0.0, 0.0, 0.0, 0.0025135587213620525, 0.0, 0.0, 0.0, 0.005861298690805816)", -0.00142397813955, -0.00955076097649, 0.0470949372024, "(0.001, 0.0, 0.0, 0.0, 0.001, 0.0, 0.0, 0.0, 0.001)", -0.386550791447, 0.485785130554, 0.300307445157, "(0.001, 0.0, 0.0, 0.0, 0.001, 0.0, 0.0, 0.0, 0.001)"
1604566970779618245, 41208, 1604566970, 778074026, base_link, 0.0104989870564, -0.0076733656504, -0.121926198839, 0.992453975138, "(0.0027887814330915944, 0.0, 0.0, 0.0, 0.0025135587213620525, 0.0, 0.0, 0.0, 0.005861298690805816)", -0.00249976942056, -0.0190365212147, 0.0736258317025, "(0.001, 0.0, 0.0, 0.0, 0.001, 0.0, 0.0, 0.0, 0.001)", -0.00377762939929, 0.478939803874, -0.075371915101, "(0.001, 0.0, 0.0, 0.0, 0.001, 0.0, 0.0, 0.0, 0.001)"
1604566970800952529, 41209, 1604566970, 800856113, base_link, 0.0104436527245, -0.00788038136605, -0.121283546613, 0.992531677594, "(0.0027887814330915944, 0.0, 0.0, 0.0, 0.0025135587213620525, 0.0, 0.0, 0.0, 0.005861298690805816)", -0.00195516404377, -0.0160238119352, 0.051939743673, "(0.001, 0.0, 0.0, 0.0, 0.001, 0.0, 0.0, 0.0, 0.001)", -0.501902537568, 0.374674625981, 0.265413137074, "(0.001, 0.0, 0.0, 0.0, 0.001, 0.0, 0.0, 0.0, 0.001)"
1604566970820627406, 41210, 1604566970, 820513010, base_link, 0.0104082043513, -0.00796702536356, -0.120940428348, 0.992573225803, "(0.0027887814330915944, 0.0, 0.0, 0.0, 0.0025135587213620525, 0.0, 0.0, 0.0, 0.005861298690805816)", -0.00389639075203, -0.0233258402102, 0.0803982410109, "(0.001, 0.0, 0.0, 0.0, 0.001, 0.0, 0.0, 0.0, 0.001)", 0.19694198353, 0.466246978974, -0.213971591297, "(0.001, 0.0, 0.0, 0.0, 0.001, 0.0, 0.0, 0.0, 0.001)"
1604566970840181406, 41211, 1604566970, 840090036, base_link, 0.01037617251, -0.00805727826991, -0.120602613942, 0.992613935436, "(0.0027887814330915944, 0.0, 0.0, 0.0, 0.0025135587213620525, 0.0, 0.0, 0.0, 0.005861298690805816)", -0.00294804806131, -0.0139509315043, 0.0546740197249, "(0.001, 0.0, 0.0, 0.0, 0.001, 0.0, 0.0, 0.0, 0.001)", -0.249972065566, 0.275510343256, 0.0946526776118, "(0.001, 0.0, 0.0, 0.0, 0.001, 0.0, 0.0, 0.0, 0.001)"
1604566970859934749, 41212, 1604566970, 859842061, base_link, 0.010342639897, -0.00811302738029, -0.120239225619, 0.992657915502, "(0.0027887814330915944, 0.0, 0.0, 0.0, 0.0025135587213620525, 0.0, 0.0, 0.0, 0.005861298690805816)", -0.00600444301506, -0.0171486438254, 0.0850872040441, "(0.001, 0.0, 0.0, 0.0, 0.001, 0.0, 0.0, 0.0, 0.001)", 0.142267002537, 0.698976182055, -0.28639907608, "(0.001, 0.0, 0.0, 0.0, 0.001, 0.0, 0.0, 0.0, 0.001)"
1604566970880615843, 41213, 1604566970, 880512952, base_link, 0.0103284471284, -0.00818602574205, -0.11988737932, 0.992700019363, "(0.0027887814330915944, 0.0, 0.0, 0.0, 0.0025135587213620525, 0.0, 0.0, 0.0, 0.005861298690805816)", -0.00171878415944, -0.0110981180867, 0.0569363262789, "(0.001, 0.0, 0.0, 0.0, 0.001, 0.0, 0.0, 0.0, 0.001)", -0.184398994577, 0.119745159328, -0.1107575463, "(0.001, 0.0, 0.0, 0.0, 0.001, 0.0, 0.0, 0.0, 0.001)"
1604566970901695756, 41214, 1604566970, 901601076, base_link, 0.0103215716913, -0.0082550708969, -0.119525966778, 0.992743099814, "(0.0027887814330915944, 0.0, 0.0, 0.0, 0.0025135587213620525, 0.0, 0.0, 0.0, 0.005861298690805816)", -0.000411506880921, -0.0157494023997, 0.0867759801356, "(0.001, 0.0, 0.0, 0.0, 0.001, 0.0, 0.0, 0.0, 0.001)", -0.469698296847, 0.442338477695, -0.402722364824, "(0.001, 0.0, 0.0, 0.0, 0.001, 0.0, 0.0, 0.0, 0.001)"
1604566970920198325, 41215, 1604566970, 920058012, base_link, 0.0103172585065, -0.00835304937277, -0.119179023995, 0.992784035419, "(0.002864207531800403, 0.0, 0.0, 0.0, 0.002588932101501351, 0.0, 0.0, 0.0, 0.0059442413125943006)", 0.00121724847697, -0.0135676278973, 0.0566857388817, "(0.001, 0.0, 0.0, 0.0, 0.001, 0.0, 0.0, 0.0, 0.001)", -0.103704733602, 0.446763228341, -0.334930097639, "(0.001, 0.0, 0.0, 0.0, 0.001, 0.0, 0.0, 0.0, 0.001)"
1604566970939503833, 41216, 1604566970, 939404964, base_link, 0.0103027304026, -0.00845937273904, -0.118823940118, 0.992825847777, "(0.0022344370497223848, 0.0, 0.0, 0.0, 0.001983361900514957, 0.0, 0.0, 0.0, 0.005546766121451663)", 0.00136404848064, -0.0212511060169, 0.085626045336, "(0.001, 0.0, 0.0, 0.0, 0.001, 0.0, 0.0, 0.0, 0.001)", -0.810724043472, 0.58125967213, -0.335196370544, "(0.001, 0.0, 0.0, 0.0, 0.001, 0.0, 0.0, 0.0, 0.001)"
1604566970960307042, 41217, 1604566970, 960221052, base_link, 0.0103180771341, -0.0085734223893, -0.118482946573, 0.992865461724, "(0.0022344370497223848, 0.0, 0.0, 0.0, 0.001983361900514957, 0.0, 0.0, 0.0, 0.005546766121451663)", 0.00270339232244, -0.0176842183444, 0.0556619035564, "(0.001, 0.0, 0.0, 0.0, 0.001, 0.0, 0.0, 0.0, 0.001)", -0.193810697932, 0.480502393325, -0.397993933389, "(0.001, 0.0, 0.0, 0.0, 0.001, 0.0, 0.0, 0.0, 0.001)"
1604566970980018583, 41218, 1604566970, 979861974, base_link, 0.0103321347208, -0.00875441271135, -0.118140795132, 0.992904506877, "(0.0022344370497223848, 0.0, 0.0, 0.0, 0.001983361900514957, 0.0, 0.0, 0.0, 0.005546766121451663)", 0.00728430911043, -0.0333921890281, 0.0832821509216, "(0.001, 0.0, 0.0, 0.0, 0.001, 0.0, 0.0, 0.0, 0.001)", -1.04288357559, 0.573787447059, -0.327457092958, "(0.001, 0.0, 0.0, 0.0, 0.001, 0.0, 0.0, 0.0, 0.001)"
1604566971001509596, 41219, 1604566971, 1403093, base_link, 0.0103699832283, -0.0089024966877, -0.117795399058, 0.992943831725, "(0.0022344370497223848, 0.0, 0.0, 0.0, 0.001983361900514957, 0.0, 0.0, 0.0, 0.005546766121451663)", 0.00766259494171, -0.0237711039462, 0.0554998707192, "(0.001, 0.0, 0.0, 0.0, 0.001, 0.0, 0.0, 0.0, 0.001)", 0.215294094127, 0.461013561161, -0.3687259463, "(0.001, 0.0, 0.0, 0.0, 0.001, 0.0, 0.0, 0.0, 0.001)"
1604566971019724152, 41220, 1604566971, 19613027, base_link, 0.0104014782434, -0.00903157684656, -0.117429950152, 0.992985622593, "(0.0022344370497223848, 0.0, 0.0, 0.0, 0.001983361900514957, 0.0, 0.0, 0.0, 0.005546766121451663)", 0.0130526686431, -0.0313959086708, 0.0860381087937, "(0.001, 0.0, 0.0, 0.0, 0.001, 0.0, 0.0, 0.0, 0.001)", -0.0915749631769, 0.148459589449, -0.111742975763, "(0.001, 0.0, 0.0, 0.0, 0.001, 0.0, 0.0, 0.0, 0.001)"
1604566971040920711, 41221, 1604566971, 40755987, base_link, 0.010426671072, -0.00913527809466, -0.117037564887, 0.993030734484, "(0.0022344370497223848, 0.0, 0.0, 0.0, 0.001983361900514957, 0.0, 0.0, 0.0, 0.005546766121451663)", 0.00746396193421, -0.0177221725996, 0.0610209894789, "(0.001, 0.0, 0.0, 0.0, 0.001, 0.0, 0.0, 0.0, 0.001)", 0.359864980009, 0.501969037445, -0.198181995894, "(0.001, 0.0, 0.0, 0.0, 0.001, 0.0, 0.0, 0.0, 0.001)"
1604566971059863899, 41222, 1604566971, 59721946, base_link, 0.0104751465347, -0.00926054960032, -0.116631595909, 0.993076827019, "(0.0022344370497223848, 0.0, 0.0, 0.0, 0.001983361900514957, 0.0, 0.0, 0.0, 0.005546766121451663)", 0.0138879064468, -0.0259162024706, 0.0950390397579, "(0.001, 0.0, 0.0, 0.0, 0.001, 0.0, 0.0, 0.0, 0.001)", 0.184162929295, 0.693008580375, 0.110658445531, "(0.001, 0.0, 0.0, 0.0, 0.001, 0.0, 0.0, 0.0, 0.001)"
1604566971080400743, 41223, 1604566971, 80307960, base_link, 0.0105076923144, -0.00934180054433, -0.116199590209, 0.993126363762, "(0.0022344370497223848, 0.0, 0.0, 0.0, 0.001983361900514957, 0.0, 0.0, 0.0, 0.005546766121451663)", 0.00778670789484, -0.0140108936339, 0.0677515647515, "(0.001, 0.0, 0.0, 0.0, 0.001, 0.0, 0.0, 0.0, 0.001)", 0.187811507883, 0.145089676537, -0.00589974182213, "(0.001, 0.0, 0.0, 0.0, 0.001, 0.0, 0.0, 0.0, 0.001)"
1604566971100832330, 41224, 1604566971, 100719928, base_link, 0.0105550911679, -0.00940430290192, -0.115746878796, 0.993178135677, "(0.0022344370497223848, 0.0, 0.0, 0.0, 0.001983361900514957, 0.0, 0.0, 0.0, 0.005546766121451663)", 0.0131396725673, -0.0172092293311, 0.105774782957, "(0.001, 0.0, 0.0, 0.0, 0.001, 0.0, 0.0, 0.0, 0.001)", 0.709642399613, 0.649420827102, 0.156417965677, "(0.001, 0.0, 0.0, 0.0, 0.001, 0.0, 0.0, 0.0, 0.001)"
1604566971120181296, 41225, 1604566971, 120091915, base_link, 0.0105879317492, -0.0094237355327, -0.11528160234, 0.9932317157, "(0.0022344370497223848, 0.0, 0.0, 0.0, 0.001983361900514957, 0.0, 0.0, 0.0, 0.005546766121451663)", 0.00834664795871, -0.00384887307175, 0.0736337798142, "(0.001, 0.0, 0.0, 0.0, 0.001, 0.0, 0.0, 0.0, 0.001)", 0.162604013126, 0.103121226105, 0.29817498014, "(0.001, 0.0, 0.0, 0.0, 0.001, 0.0, 0.0, 0.0, 0.001)"
1604566971140273658, 41226, 1604566971, 139950037, base_link, 0.0106265129359, -0.00941532670361, -0.114820913105, 0.993284746062, "(0.0022344370497223848, 0.0, 0.0, 0.0, 0.001983361900514957, 0.0, 0.0, 0.0, 0.005546766121451663)", 0.0103738125788, -0.00091252143667, 0.110382043247, "(0.001, 0.0, 0.0, 0.0, 0.001, 0.0, 0.0, 0.0, 0.001)", 0.491126963371, 0.638971678586, 0.110374523421, "(0.001, 0.0, 0.0, 0.0, 0.001, 0.0, 0.0, 0.0, 0.001)"
1604566971160369507, 41227, 1604566971, 160259008, base_link, 0.0106545896486, -0.00944162435863, -0.114361140324, 0.993337236306, "(0.0022344370497223848, 0.0, 0.0, 0.0, 0.001983361900514957, 0.0, 0.0, 0.0, 0.005546766121451663)", 0.00654810463434, -0.00079007677445, 0.0744776657667, "(0.001, 0.0, 0.0, 0.0, 0.001, 0.0, 0.0, 0.0, 0.001)", -0.319196082275, 0.40953058665, 0.52996045507, "(0.001, 0.0, 0.0, 0.0, 0.001, 0.0, 0.0, 0.0, 0.001)"
1604566971180206580, 41228, 1604566971, 180051088, base_link, 0.0106884850715, -0.00942453839382, -0.11387899895, 0.99339242395, "(0.0022344370497223848, 0.0, 0.0, 0.0, 0.001983361900514957, 0.0, 0.0, 0.0, 0.005546766121451663)", 0.00917900639527, 0.0017718064824, 0.113516006873, "(0.001, 0.0, 0.0, 0.0, 0.001, 0.0, 0.0, 0.0, 0.001)", 0.530871506799, 0.449590399432, -0.0732581284585, "(0.001, 0.0, 0.0, 0.0, 0.001, 0.0, 0.0, 0.0, 0.001)"
1604566971200335896, 41229, 1604566971, 200201988, base_link, 0.0107276979597, -0.00940632066731, -0.113407744965, 0.993446083595, "(0.0022344370497223848, 0.0, 0.0, 0.0, 0.001983361900514957, 0.0, 0.0, 0.0, 0.005546766121451663)", 0.00644478281917, 0.00377421012336, 0.0763285935872, "(0.001, 0.0, 0.0, 0.0, 0.001, 0.0, 0.0, 0.0, 0.001)", -0.0338853728946, 0.474447374857, 0.42047824683, "(0.001, 0.0, 0.0, 0.0, 0.001, 0.0, 0.0, 0.0, 0.001)"
1604566971219663398, 41230, 1604566971, 219552040, base_link, 0.0107614783773, -0.00934057629421, -0.112934442569, 0.993500254604, "(0.0022344370497223848, 0.0, 0.0, 0.0, 0.001983361900514957, 0.0, 0.0, 0.0, 0.005546766121451663)", 0.00875035113984, 0.0122309384369, 0.114092661037, "(0.001, 0.0, 0.0, 0.0, 0.001, 0.0, 0.0, 0.0, 0.001)", 0.242757084526, 0.456126896636, -0.0550659224812, "(0.001, 0.0, 0.0, 0.0, 0.001, 0.0, 0.0, 0.0, 0.001)"
1604566971240479658, 41231, 1604566971, 240278005, base_link, 0.0108067522163, -0.00930391242165, -0.112479334863, 0.993551735215, "(0.0022344370497223848, 0.0, 0.0, 0.0, 0.001983361900514957, 0.0, 0.0, 0.0, 0.005546766121451663)", 0.00655534106736, 0.00847886037951, 0.07413348631, "(0.001, 0.0, 0.0, 0.0, 0.001, 0.0, 0.0, 0.0, 0.001)", 0.0780591810885, 0.366958508912, -0.0766585440756, "(0.001, 0.0, 0.0, 0.0, 0.001, 0.0, 0.0, 0.0, 0.001)"
1604566971259453644, 41232, 1604566971, 259357929, base_link, 0.0108543993128, -0.00920465539885, -0.112012654939, 0.993604861838, "(0.0022344370497223848, 0.0, 0.0, 0.0, 0.001983361900514957, 0.0, 0.0, 0.0, 0.005546766121451663)", 0.0098036182217, 0.0193533210938, 0.112009125375, "(0.001, 0.0, 0.0, 0.0, 0.001, 0.0, 0.0, 0.0, 0.001)", 0.139832101161, 0.742107729001, -0.100117180522, "(0.001, 0.0, 0.0, 0.0, 0.001, 0.0, 0.0, 0.0, 0.001)"
1604566971280219266, 41233, 1604566971, 280139923, base_link, 0.0109093981801, -0.00909442640786, -0.111557793043, 0.993656447295, "(0.0022344370497223848, 0.0, 0.0, 0.0, 0.001983361900514957, 0.0, 0.0, 0.0, 0.005546766121451663)", 0.00764680786652, 0.0172861458657, 0.0733764958394, "(0.001, 0.0, 0.0, 0.0, 0.001, 0.0, 0.0, 0.0, 0.001)", 0.483981641538, 0.56874594586, -0.281485428794, "(0.001, 0.0, 0.0, 0.0, 0.001, 0.0, 0.0, 0.0, 0.001)"
1604566971300933669, 41234, 1604566971, 300839900, base_link, 0.0109756949753, -0.00892920178467, -0.111108494061, 0.993707555583, "(0.0022344370497223848, 0.0, 0.0, 0.0, 0.001983361900514957, 0.0, 0.0, 0.0, 0.005546766121451663)", 0.011728317893, 0.0365386505187, 0.108834578522, "(0.001, 0.0, 0.0, 0.0, 0.001, 0.0, 0.0, 0.0, 0.001)", -0.136917776271, 0.71516197382, -0.0195059976797, "(0.001, 0.0, 0.0, 0.0, 0.001, 0.0, 0.0, 0.0, 0.001)"
1604566971320274353, 41235, 1604566971, 320190906, base_link, 0.0110604050925, -0.00879139909546, -0.110670645678, 0.993756704091, "(0.0022344370497223848, 0.0, 0.0, 0.0, 0.001983361900514957, 0.0, 0.0, 0.0, 0.005546766121451663)", 0.0100313956217, 0.0238677067823, 0.0707475616335, "(0.001, 0.0, 0.0, 0.0, 0.001, 0.0, 0.0, 0.0, 0.001)", 0.0285704288605, 0.0865670069614, -0.529063241344, "(0.001, 0.0, 0.0, 0.0, 0.001, 0.0, 0.0, 0.0, 0.001)"
1604566971339506678, 41236, 1604566971, 339389085, base_link, 0.0111466686712, -0.00865633344401, -0.110244105445, 0.993804335311, "(0.0022344370497223848, 0.0, 0.0, 0.0, 0.001983361900514957, 0.0, 0.0, 0.0, 0.005546766121451663)", 0.016840401698, 0.036519097833, 0.104639417869, "(0.001, 0.0, 0.0, 0.0, 0.001, 0.0, 0.0, 0.0, 0.001)", -0.473790377418, 0.240233637822, -0.267149996666, "(0.001, 0.0, 0.0, 0.0, 0.001, 0.0, 0.0, 0.0, 0.001)"
1604566971360417277, 41237, 1604566971, 360290050, base_link, 0.011271942813, -0.00854077933635, -0.109788081662, 0.993854403582, "(0.0022344370497223848, 0.0, 0.0, 0.0, 0.001983361900514957, 0.0, 0.0, 0.0, 0.005546766121451663)", 0.0154327152442, 0.0225921065729, 0.0710160304219, "(0.001, 0.0, 0.0, 0.0, 0.001, 0.0, 0.0, 0.0, 0.001)", 0.0282726363019, 0.358425778804, -0.328684916841, "(0.001, 0.0, 0.0, 0.0, 0.001, 0.0, 0.0, 0.0, 0.001)"
1604566971379925365, 41238, 1604566971, 379806995, base_link, 0.011377587719, -0.00846900727496, -0.109365892699, 0.993900361167, "(0.0022344370497223848, 0.0, 0.0, 0.0, 0.001983361900514957, 0.0, 0.0, 0.0, 0.005546766121451663)", 0.0248398830269, 0.0270991796266, 0.104285045432, "(0.001, 0.0, 0.0, 0.0, 0.001, 0.0, 0.0, 0.0, 0.001)", -0.771679135408, -0.0602691388831, 0.0519647873026, "(0.001, 0.0, 0.0, 0.0, 0.001, 0.0, 0.0, 0.0, 0.001)"
1604566971400733822, 41239, 1604566971, 400640964, base_link, 0.0115242633659, -0.00840225937647, -0.108915100475, 0.993948738256, "(0.0022344370497223848, 0.0, 0.0, 0.0, 0.001983361900514957, 0.0, 0.0, 0.0, 0.005546766121451663)", 0.0201538010544, 0.0148728604099, 0.070826645753, "(0.001, 0.0, 0.0, 0.0, 0.001, 0.0, 0.0, 0.0, 0.001)", -0.43392961599, 0.320335019643, -0.0945563499653, "(0.001, 0.0, 0.0, 0.0, 0.001, 0.0, 0.0, 0.0, 0.001)"
1604566971419889275, 41240, 1604566971, 419810056, base_link, 0.0116412574025, -0.00837948542647, -0.108447342442, 0.993998711904, "(0.0022344370497223848, 0.0, 0.0, 0.0, 0.001983361900514957, 0.0, 0.0, 0.0, 0.005546766121451663)", 0.0303116712516, 0.0155718149257, 0.109225154978, "(0.001, 0.0, 0.0, 0.0, 0.001, 0.0, 0.0, 0.0, 0.001)", -0.434770588788, 0.0984471277973, 0.260657060889, "(0.001, 0.0, 0.0, 0.0, 0.001, 0.0, 0.0, 0.0, 0.001)"
1604566971440395508, 41241, 1604566971, 440289974, base_link, 0.0117354811514, -0.00833920218021, -0.107964874562, 0.994050462527, "(0.0022344370497223848, 0.0, 0.0, 0.0, 0.001983361900514957, 0.0, 0.0, 0.0, 0.005546766121451663)", 0.0167224800361, 0.00932445393284, 0.0763912207371, "(0.001, 0.0, 0.0, 0.0, 0.001, 0.0, 0.0, 0.0, 0.001)", -0.352930186455, -0.0108280316416, 0.516285804583, "(0.001, 0.0, 0.0, 0.0, 0.001, 0.0, 0.0, 0.0, 0.001)"
1604566971459654312, 41242, 1604566971, 459498882, base_link, 0.0118327882059, -0.00835516110004, -0.107459904071, 0.994103890659, "(0.0022344370497223848, 0.0, 0.0, 0.0, 0.001983361900514957, 0.0, 0.0, 0.0, 0.005546766121451663)", 0.0250504575183, 0.00608458467478, 0.117849966053, "(0.001, 0.0, 0.0, 0.0, 0.001, 0.0, 0.0, 0.0, 0.001)", -0.263984972537, 0.712425074814, 0.341213598754, "(0.001, 0.0, 0.0, 0.0, 0.001, 0.0, 0.0, 0.0, 0.001)"
1604566971480237740, 41243, 1604566971, 480137109, base_link, 0.0119267155776, -0.00837215848315, -0.106933559622, 0.994159380705, "(0.0022344370497223848, 0.0, 0.0, 0.0, 0.001983361900514957, 0.0, 0.0, 0.0, 0.005546766121451663)", 0.0164199714248, 0.00168909662147, 0.0828712683045, "(0.001, 0.0, 0.0, 0.0, 0.001, 0.0, 0.0, 0.0, 0.001)", -0.636462245701, 0.263615381124, 0.418391330521, "(0.001, 0.0, 0.0, 0.0, 0.001, 0.0, 0.0, 0.0, 0.001)"
1604566971500471424, 41244, 1604566971, 500355005, base_link, 0.0119847639839, -0.00838248419805, -0.106386287493, 0.994217308854, "(0.0022344370497223848, 0.0, 0.0, 0.0, 0.001983361900514957, 0.0, 0.0, 0.0, 0.005546766121451663)", 0.0195896969837, -7.88040071212e-05, 0.128343415127, "(0.001, 0.0, 0.0, 0.0, 0.001, 0.0, 0.0, 0.0, 0.001)", 0.0845896389714, 0.872348135532, 0.338423574504, "(0.001, 0.0, 0.0, 0.0, 0.001, 0.0, 0.0, 0.0, 0.001)"
1604566971520400176, 41245, 1604566971, 520287036, base_link, 0.0120121117411, -0.0083993086655, -0.105843273361, 0.994274792132, "(0.0022344370497223848, 0.0, 0.0, 0.0, 0.001983361900514957, 0.0, 0.0, 0.0, 0.005546766121451663)", 0.0078642987124, 0.000264515963493, 0.0871774670171, "(0.001, 0.0, 0.0, 0.0, 0.001, 0.0, 0.0, 0.0, 0.001)", -0.320783197115, 0.584990605161, 0.567763599059, "(0.001, 0.0, 0.0, 0.0, 0.001, 0.0, 0.0, 0.0, 0.001)"
1604566971539688503, 41246, 1604566971, 539602994, base_link, 0.0120243394527, -0.00839067468438, -0.105273004164, 0.994335258569, "(0.0022344370497223848, 0.0, 0.0, 0.0, 0.001983361900514957, 0.0, 0.0, 0.0, 0.005546766121451663)", 0.0071170127671, 0.00162045502219, 0.134442585398, "(0.001, 0.0, 0.0, 0.0, 0.001, 0.0, 0.0, 0.0, 0.001)", 0.0836094569125, 0.513883823783, 0.119269600709, "(0.001, 0.0, 0.0, 0.0, 0.001, 0.0, 0.0, 0.0, 0.001)"
1604566971560143557, 41247, 1604566971, 560054063, base_link, 0.012026026237, -0.0083946381009, -0.104708078094, 0.994394852725, "(0.0022344370497223848, 0.0, 0.0, 0.0, 0.001983361900514957, 0.0, 0.0, 0.0, 0.005546766121451663)", 0.00294678666899, 0.000895848067482, 0.0902768629956, "(0.001, 0.0, 0.0, 0.0, 0.001, 0.0, 0.0, 0.0, 0.001)", -0.0237010288166, 0.226147056189, 0.132501699695, "(0.001, 0.0, 0.0, 0.0, 0.001, 0.0, 0.0, 0.0, 0.001)"
1604566971579658104, 41248, 1604566971, 579550981, base_link, 0.0120626507681, -0.0083816563414, -0.104132781504, 0.994454928144, "(0.0022344370497223848, 0.0, 0.0, 0.0, 0.001983361900514957, 0.0, 0.0, 0.0, 0.005546766121451663)", 0.00715721088053, 0.0046361731541, 0.137646338425, "(0.001, 0.0, 0.0, 0.0, 0.001, 0.0, 0.0, 0.0, 0.001)", -0.230589873418, 0.6562888869, 0.0238039378161, "(0.001, 0.0, 0.0, 0.0, 0.001, 0.0, 0.0, 0.0, 0.001)"
1604566971600373285, 41249, 1604566971, 600265979, base_link, 0.0120737646984, -0.00842601709257, -0.103561240485, 0.994514100408, "(0.0022344370497223848, 0.0, 0.0, 0.0, 0.001983361900514957, 0.0, 0.0, 0.0, 0.005546766121451663)", 0.00377035528798, -0.00289517980335, 0.0917506232271, "(0.001, 0.0, 0.0, 0.0, 0.001, 0.0, 0.0, 0.0, 0.001)", -0.164593599177, 0.204787895686, -0.104773693066, "(0.001, 0.0, 0.0, 0.0, 0.001, 0.0, 0.0, 0.0, 0.001)"
1604566971619596659, 41250, 1604566971, 619477987, base_link, 0.0120984796656, -0.00845278404023, -0.10300076129, 0.994571777402, "(0.0022344370497223848, 0.0, 0.0, 0.0, 0.001983361900514957, 0.0, 0.0, 0.0, 0.005546766121451663)", 0.00724787086715, -0.00320576307228, 0.136914453309, "(0.001, 0.0, 0.0, 0.0, 0.001, 0.0, 0.0, 0.0, 0.001)", -0.621219882628, 0.115816578245, 0.0702670288124, "(0.001, 0.0, 0.0, 0.0, 0.001, 0.0, 0.0, 0.0, 0.001)"
1604566971639302107, 41251, 1604566971, 639161109, base_link, 0.0120984796656, -0.00845278404023, -0.10300076129, 0.994571777402, "(0.0022344370497223848, 0.0, 0.0, 0.0, 0.001983361900514957, 0.0, 0.0, 0.0, 0.005546766121451663)", 0.00706951002612, -0.00409153376991, 0.0902469272362, "(0.001, 0.0, 0.0, 0.0, 0.001, 0.0, 0.0, 0.0, 0.001)", -0.115993682726, 0.224591064989, -0.21241351332, "(0.001, 0.0, 0.0, 0.0, 0.001, 0.0, 0.0, 0.0, 0.001)"
1604566971660312852, 41252, 1604566971, 659909009, base_link, 0.0121907820202, -0.0085729935655, -0.101903767046, 0.994682618164, "(0.0022344370497223848, 0.0, 0.0, 0.0, 0.001983361900514957, 0.0, 0.0, 0.0, 0.005546766121451663)", 0.0133247231604, -0.0114126975186, 0.132383044142, "(0.001, 0.0, 0.0, 0.0, 0.001, 0.0, 0.0, 0.0, 0.001)", -0.916794778695, 0.195292999585, -0.100881085454, "(0.001, 0.0, 0.0, 0.0, 0.001, 0.0, 0.0, 0.0, 0.001)"
1604566971680403125, 41253, 1604566971, 680186986, base_link, 0.0122575487034, -0.00858528194384, -0.101357569002, 0.994737497353, "(0.0022344370497223848, 0.0, 0.0, 0.0, 0.001983361900514957, 0.0, 0.0, 0.0, 0.005546766121451663)", 0.0106631443366, -0.00426363673212, 0.0873026047384, "(0.001, 0.0, 0.0, 0.0, 0.001, 0.0, 0.0, 0.0, 0.001)", 0.21844970159, 0.538688242125, -0.064017195857, "(0.001, 0.0, 0.0, 0.0, 0.001, 0.0, 0.0, 0.0, 0.001)"
1604566971700337421, 41254, 1604566971, 700252056, base_link, 0.0123135947897, -0.00865441094937, -0.100829051185, 0.994789917013, "(0.0022344370497223848, 0.0, 0.0, 0.0, 0.001983361900514957, 0.0, 0.0, 0.0, 0.005546766121451663)", 0.0162699696348, -0.00881303171946, 0.129080585447, "(0.001, 0.0, 0.0, 0.0, 0.001, 0.0, 0.0, 0.0, 0.001)", -0.742847499932, 0.293269994498, -0.0512948936851, "(0.001, 0.0, 0.0, 0.0, 0.001, 0.0, 0.0, 0.0, 0.001)"
1604566971720701326, 41255, 1604566971, 720618009, base_link, 0.0123866425667, -0.0086872684417, -0.100302125148, 0.994841990541, "(0.0022344370497223848, 0.0, 0.0, 0.0, 0.001983361900514957, 0.0, 0.0, 0.0, 0.005546766121451663)", 0.0120026693628, -0.00437473638385, 0.0852328818943, "(0.001, 0.0, 0.0, 0.0, 0.001, 0.0, 0.0, 0.0, 0.001)", -0.438152961739, 0.101848825954, -0.0576503897945, "(0.001, 0.0, 0.0, 0.0, 0.001, 0.0, 0.0, 0.0, 0.001)"
1604566971739616014, 41256, 1604566971, 739537000, base_link, 0.0124446375493, -0.00878520308165, -0.0998067824442, 0.994890223784, "(0.0022344370497223848, 0.0, 0.0, 0.0, 0.001983361900514957, 0.0, 0.0, 0.0, 0.005546766121451663)", 0.0181344772127, -0.0139721037276, 0.122954194067, "(0.001, 0.0, 0.0, 0.0, 0.001, 0.0, 0.0, 0.0, 0.001)", -0.567800521532, 0.567044729536, -0.11178830472, "(0.001, 0.0, 0.0, 0.0, 0.001, 0.0, 0.0, 0.0, 0.001)"
1604566971759627627, 41257, 1604566971, 759533882, base_link, 0.0124979481597, -0.0088414138249, -0.0993239468124, 0.994937377066, "(0.0022344370497223848, 0.0, 0.0, 0.0, 0.001983361900514957, 0.0, 0.0, 0.0, 0.005546766121451663)", 0.011579431498, -0.00810780765521, 0.0795088371031, "(0.001, 0.0, 0.0, 0.0, 0.001, 0.0, 0.0, 0.0, 0.001)", -0.489743655657, 0.216106215575, 0.223148321868, "(0.001, 0.0, 0.0, 0.0, 0.001, 0.0, 0.0, 0.0, 0.001)"
1604566971779860210, 41258, 1604566971, 779730081, base_link, 0.0125467662206, -0.00886678785293, -0.0988458100736, 0.99498415292, "(0.0022344370497223848, 0.0, 0.0, 0.0, 0.001983361900514957, 0.0, 0.0, 0.0, 0.005546766121451663)", 0.0142124175303, -0.00814576529517, 0.116096818506, "(0.001, 0.0, 0.0, 0.0, 0.001, 0.0, 0.0, 0.0, 0.001)", -0.0258426376099, 0.552864564756, -0.0170337489946, "(0.001, 0.0, 0.0, 0.0, 0.001, 0.0, 0.0, 0.0, 0.001)"
1604566971800419291, 41259, 1604566971, 800328016, base_link, 0.0125884466975, -0.00896500542592, -0.0983726563257, 0.995029637837, "(0.0022344370497223848, 0.0, 0.0, 0.0, 0.001983361900514957, 0.0, 0.0, 0.0, 0.005546766121451663)", 0.00975220712792, -0.00921637475776, 0.0768233771363, "(0.001, 0.0, 0.0, 0.0, 0.001, 0.0, 0.0, 0.0, 0.001)", -0.499811800105, 0.135116271596, 0.285731201629, "(0.001, 0.0, 0.0, 0.0, 0.001, 0.0, 0.0, 0.0, 0.001)"
1604566971819770425, 41260, 1604566971, 819566011, base_link, 0.0126259716026, -0.0090499702047, -0.097884862192, 0.99507649788, "(0.0022344370497223848, 0.0, 0.0, 0.0, 0.001983361900514957, 0.0, 0.0, 0.0, 0.005546766121451663)", 0.012938152544, -0.0174188442619, 0.116249205071, "(0.001, 0.0, 0.0, 0.0, 0.001, 0.0, 0.0, 0.0, 0.001)", -0.191131152211, 0.0415755073236, -0.0819371958556, "(0.001, 0.0, 0.0, 0.0, 0.001, 0.0, 0.0, 0.0, 0.001)"
1604566971840492334, 41261, 1604566971, 840404033, base_link, 0.0126541664624, -0.00915690058686, -0.0973992966306, 0.995122806622, "(0.0022344370497223848, 0.0, 0.0, 0.0, 0.001983361900514957, 0.0, 0.0, 0.0, 0.005546766121451663)", 0.00735688474793, -0.0142883797531, 0.0778350608257, "(0.001, 0.0, 0.0, 0.0, 0.001, 0.0, 0.0, 0.0, 0.001)", 0.172233358137, 0.507954724667, 0.19286725712, "(0.001, 0.0, 0.0, 0.0, 0.001, 0.0, 0.0, 0.0, 0.001)"
1604566971859485042, 41262, 1604566971, 859394073, base_link, 0.0127008650949, -0.00922717978303, -0.09689956138, 0.995170348324, "(0.0022344370497223848, 0.0, 0.0, 0.0, 0.001983361900514957, 0.0, 0.0, 0.0, 0.005546766121451663)", 0.0133511615218, -0.016054419476, 0.119491478151, "(0.001, 0.0, 0.0, 0.0, 0.001, 0.0, 0.0, 0.0, 0.001)", -0.0540617962321, 0.336032499561, 0.0505156878836, "(0.001, 0.0, 0.0, 0.0, 0.001, 0.0, 0.0, 0.0, 0.001)"
1604566971880602606, 41263, 1604566971, 880458116, base_link, 0.0127311918991, -0.00932741856858, -0.0963992284654, 0.995217616789, "(0.0022344370497223848, 0.0, 0.0, 0.0, 0.001983361900514957, 0.0, 0.0, 0.0, 0.005546766121451663)", 0.0075265630243, -0.0139549605568, 0.0795279323794, "(0.001, 0.0, 0.0, 0.0, 0.001, 0.0, 0.0, 0.0, 0.001)", 0.270008409995, 0.226715533022, -0.153104636739, "(0.001, 0.0, 0.0, 0.0, 0.001, 0.0, 0.0, 0.0, 0.001)"
1604566971901987761, 41264, 1604566971, 901823043, base_link, 0.0127857051847, -0.00940127175734, -0.0958794416196, 0.99526643393, "(0.0022344370497223848, 0.0, 0.0, 0.0, 0.001983361900514957, 0.0, 0.0, 0.0, 0.005546766121451663)", 0.0136834342849, -0.016684123113, 0.123180392447, "(0.001, 0.0, 0.0, 0.0, 0.001, 0.0, 0.0, 0.0, 0.001)", -0.0311416897733, 0.761027509365, 0.321622315916, "(0.001, 0.0, 0.0, 0.0, 0.001, 0.0, 0.0, 0.0, 0.001)"
1604566971920495773, 41265, 1604566971, 920382022, base_link, 0.0128297080627, -0.00947281599455, -0.0953481237831, 0.995316230973, "(0.002309974863523634, 0.0, 0.0, 0.0, 0.002058851809326967, 0.0, 0.0, 0.0, 0.0056321273210216405)", 0.00932076672083, -0.0112633761862, 0.0840459295806, "(0.001, 0.0, 0.0, 0.0, 0.001, 0.0, 0.0, 0.0, 0.001)", 0.415069118575, -0.0698817881845, -0.235887405768, "(0.001, 0.0, 0.0, 0.0, 0.001, 0.0, 0.0, 0.0, 0.001)"
1604566971940072154, 41266, 1604566971, 939945936, base_link, 0.0128616383372, -0.00955281247772, -0.0948266882834, 0.995364868389, "(0.001820850375443675, 0.0, 0.0, 0.0, 0.0016026889287225204, 0.0, 0.0, 0.0, 0.005283955629798387)", 0.0111483764927, -0.0150646538118, 0.126573833755, "(0.001, 0.0, 0.0, 0.0, 0.001, 0.0, 0.0, 0.0, 0.001)", -0.238062832014, 0.1539523462, -0.0693724091275, "(0.001, 0.0, 0.0, 0.0, 0.001, 0.0, 0.0, 0.0, 0.001)"
1604566971961347051, 41267, 1604566971, 961236953, base_link, 0.0129394031954, -0.00956190379411, -0.0942855530254, 0.995415177869, "(0.001820850375443675, 0.0, 0.0, 0.0, 0.0016026889287225204, 0.0, 0.0, 0.0, 0.005283955629798387)", 0.0112257246286, -0.00413347974621, 0.0854348410474, "(0.001, 0.0, 0.0, 0.0, 0.001, 0.0, 0.0, 0.0, 0.001)", 0.409470009611, 0.469171102314, -0.204821383096, "(0.001, 0.0, 0.0, 0.0, 0.001, 0.0, 0.0, 0.0, 0.001)"
1604566971980177930, 41268, 1604566971, 980019092, base_link, 0.0130069520311, -0.00960674614654, -0.0937330716924, 0.995466042062, "(0.001820850375443675, 0.0, 0.0, 0.0, 0.0016026889287225204, 0.0, 0.0, 0.0, 0.005283955629798387)", 0.018005698949, -0.00587278132275, 0.131182031286, "(0.001, 0.0, 0.0, 0.0, 0.001, 0.0, 0.0, 0.0, 0.001)", 0.0491637202697, 0.125655843165, -0.184648883563, "(0.001, 0.0, 0.0, 0.0, 0.001, 0.0, 0.0, 0.0, 0.001)"
1604566972001636418, 41269, 1604566972, 1539945, base_link, 0.0131234304536, -0.00961285504658, -0.0931834486926, 0.995516053854, "(0.001820850375443675, 0.0, 0.0, 0.0, 0.0016026889287225204, 0.0, 0.0, 0.0, 0.005283955629798387)", 0.0151719301739, 0.000210402334072, 0.0883609031929, "(0.001, 0.0, 0.0, 0.0, 0.001, 0.0, 0.0, 0.0, 0.001)", -0.0809998113904, 0.282072204572, -0.11440838631, "(0.001, 0.0, 0.0, 0.0, 0.001, 0.0, 0.0, 0.0, 0.001)"
1604566972019661285, 41270, 1604566972, 19561052, base_link, 0.0132095876225, -0.00963779309972, -0.0926371806641, 0.995565654539, "(0.001820850375443675, 0.0, 0.0, 0.0, 0.0016026889287225204, 0.0, 0.0, 0.0, 0.005283955629798387)", 0.0236255970759, -0.00195008492522, 0.131419062123, "(0.001, 0.0, 0.0, 0.0, 0.001, 0.0, 0.0, 0.0, 0.001)", 0.0240175459763, 0.258983032057, -0.393367559278, "(0.001, 0.0, 0.0, 0.0, 0.001, 0.0, 0.0, 0.0, 0.001)"
1604566972040574401, 41271, 1604566972, 40330886, base_link, 0.0133160914828, -0.00966730638447, -0.0921046046817, 0.995613362049, "(0.001820850375443675, 0.0, 0.0, 0.0, 0.0016026889287225204, 0.0, 0.0, 0.0, 0.005283955629798387)", 0.0172878501685, -0.000328394728444, 0.0869800274003, "(0.001, 0.0, 0.0, 0.0, 0.001, 0.0, 0.0, 0.0, 0.001)", -0.761238118223, 0.0782864206608, 0.127624324128, "(0.001, 0.0, 0.0, 0.0, 0.001, 0.0, 0.0, 0.0, 0.001)"
1604566972059635137, 41272, 1604566972, 59549093, base_link, 0.0134013219736, -0.00968832378599, -0.091602358774, 0.995658349445, "(0.001820850375443675, 0.0, 0.0, 0.0, 0.0016026889287225204, 0.0, 0.0, 0.0, 0.005283955629798387)", 0.0235261636523, -0.0029386300649, 0.124695133579, "(0.001, 0.0, 0.0, 0.0, 0.001, 0.0, 0.0, 0.0, 0.001)", -0.144553435477, 0.375054373013, -0.174777843957, "(0.001, 0.0, 0.0, 0.0, 0.001, 0.0, 0.0, 0.0, 0.001)"
1604566972080290650, 41273, 1604566972, 80184936, base_link, 0.0135068205309, -0.00973163537559, -0.091099184605, 0.99570266628, "(0.001820850375443675, 0.0, 0.0, 0.0, 0.0016026889287225204, 0.0, 0.0, 0.0, 0.005283955629798387)", 0.0165785720809, -0.00166166670361, 0.0813772956438, "(0.001, 0.0, 0.0, 0.0, 0.001, 0.0, 0.0, 0.0, 0.001)", -0.417118859773, 0.255035828165, 0.311748961075, "(0.001, 0.0, 0.0, 0.0, 0.001, 0.0, 0.0, 0.0, 0.001)"
1604566972100513072, 41274, 1604566972, 100409030, base_link, 0.0136053662585, -0.00980574092549, -0.0906199665353, 0.99574432618, "(0.001820850375443675, 0.0, 0.0, 0.0, 0.0016026889287225204, 0.0, 0.0, 0.0, 0.005283955629798387)", 0.0258857632367, -0.00851692382838, 0.1186598704, "(0.001, 0.0, 0.0, 0.0, 0.001, 0.0, 0.0, 0.0, 0.001)", -1.1116429118, -0.143443295025, -0.0950601665988, "(0.001, 0.0, 0.0, 0.0, 0.001, 0.0, 0.0, 0.0, 0.001)"
1604566972120415682, 41275, 1604566972, 120310068, base_link, 0.0137017554663, -0.00995282461143, -0.0901535363318, 0.995783883715, "(0.001820850375443675, 0.0, 0.0, 0.0, 0.0016026889287225204, 0.0, 0.0, 0.0, 0.005283955629798387)", 0.017145925905, -0.0164984064009, 0.0762238661483, "(0.001, 0.0, 0.0, 0.0, 0.001, 0.0, 0.0, 0.0, 0.001)", -0.511712069353, 0.194014338759, -0.114759975686, "(0.001, 0.0, 0.0, 0.0, 0.001, 0.0, 0.0, 0.0, 0.001)"
1604566972140032995, 41276, 1604566972, 139909029, base_link, 0.0137937541456, -0.0100428524055, -0.0896819072858, 0.995824296233, "(0.001820850375443675, 0.0, 0.0, 0.0, 0.0016026889287225204, 0.0, 0.0, 0.0, 0.005283955629798387)", 0.025128541737, -0.0208178087088, 0.11412982277, "(0.001, 0.0, 0.0, 0.0, 0.001, 0.0, 0.0, 0.0, 0.001)", -0.231373137148, 0.881081185851, -0.10243872648, "(0.001, 0.0, 0.0, 0.0, 0.001, 0.0, 0.0, 0.0, 0.001)"
1604566972160264050, 41277, 1604566972, 160161018, base_link, 0.0139013972886, -0.0101096692812, -0.0892296415173, 0.995862749989, "(0.001820850375443675, 0.0, 0.0, 0.0, 0.0016026889287225204, 0.0, 0.0, 0.0, 0.005283955629798387)", 0.0173420411485, -0.0107589619779, 0.073697870889, "(0.001, 0.0, 0.0, 0.0, 0.001, 0.0, 0.0, 0.0, 0.001)", 0.0437876192469, 0.182653502674, -0.523343349449, "(0.001, 0.0, 0.0, 0.0, 0.001, 0.0, 0.0, 0.0, 0.001)"
1604566972178306782, 41278, 1604566972, 178205013, base_link, 0.0139013972886, -0.0101096692812, -0.0892296415173, 0.995862749989, "(0.001820850375443675, 0.0, 0.0, 0.0, 0.0016026889287225204, 0.0, 0.0, 0.0, 0.005283955629798387)", 0.0338237578402, -0.0147441313873, 0.108278999968, "(0.001, 0.0, 0.0, 0.0, 0.001, 0.0, 0.0, 0.0, 0.001)", -0.344114867962, 0.45824099182, -0.469240161509, "(0.001, 0.0, 0.0, 0.0, 0.001, 0.0, 0.0, 0.0, 0.001)"
1604566972200839810, 41279, 1604566972, 200689077, base_link, 0.0142192583897, -0.010249909238, -0.0883090838627, 0.995938882542, "(0.001820850375443675, 0.0, 0.0, 0.0, 0.0016026889287225204, 0.0, 0.0, 0.0, 0.005283955629798387)", 0.0258315582011, -0.00741797253266, 0.0743934435378, "(0.001, 0.0, 0.0, 0.0, 0.001, 0.0, 0.0, 0.0, 0.001)", 0.434546134068, 0.438056133414, -0.440197182057, "(0.001, 0.0, 0.0, 0.0, 0.001, 0.0, 0.0, 0.0, 0.001)"
1604566972219563648, 41280, 1604566972, 219404935, base_link, 0.0143328907008, -0.0102328310694, -0.0878271391381, 0.995980045505, "(0.001820850375443675, 0.0, 0.0, 0.0, 0.0016026889287225204, 0.0, 0.0, 0.0, 0.005283955629798387)", 0.0338691457877, -0.000782223043886, 0.114229058071, "(0.001, 0.0, 0.0, 0.0, 0.001, 0.0, 0.0, 0.0, 0.001)", 0.366750138126, 0.357504854037, -0.126179040808, "(0.001, 0.0, 0.0, 0.0, 0.001, 0.0, 0.0, 0.0, 0.001)"
1604566972240017567, 41281, 1604566972, 239916086, base_link, 0.0144746295381, -0.0101874987215, -0.0873227692102, 0.996022807945, "(0.001820850375443675, 0.0, 0.0, 0.0, 0.0016026889287225204, 0.0, 0.0, 0.0, 0.005283955629798387)", 0.0209497315023, 0.00746891551106, 0.0790529596844, "(0.001, 0.0, 0.0, 0.0, 0.001, 0.0, 0.0, 0.0, 0.001)", 0.507377614805, 0.272503544606, -0.0662066398967, "(0.001, 0.0, 0.0, 0.0, 0.001, 0.0, 0.0, 0.0, 0.001)"
1604566972259590149, 41282, 1604566972, 259479999, base_link, 0.0145672927568, -0.0101571347054, -0.0867865285438, 0.996068634713, "(0.001820850375443675, 0.0, 0.0, 0.0, 0.0016026889287225204, 0.0, 0.0, 0.0, 0.005283955629798387)", 0.0273803155098, 0.0119574489863, 0.124063117501, "(0.001, 0.0, 0.0, 0.0, 0.001, 0.0, 0.0, 0.0, 0.001)", 0.270563192891, 0.307476469421, 0.00647330836516, "(0.001, 0.0, 0.0, 0.0, 0.001, 0.0, 0.0, 0.0, 0.001)"
1604566972280097239, 41283, 1604566972, 279871940, base_link, 0.0146686845937, -0.0101231991568, -0.0862616718411, 0.99611308319, "(0.001820850375443675, 0.0, 0.0, 0.0, 0.0016026889287225204, 0.0, 0.0, 0.0, 0.005283955629798387)", 0.016539049936, 0.00852618618601, 0.0843976093657, "(0.001, 0.0, 0.0, 0.0, 0.001, 0.0, 0.0, 0.0, 0.001)", -0.35339404529, 0.687792358924, 0.461874750557, "(0.001, 0.0, 0.0, 0.0, 0.001, 0.0, 0.0, 0.0, 0.001)"
1604566972299719153, 41284, 1604566972, 299602031, base_link, 0.0146686845937, -0.0101231991568, -0.0862616718411, 0.99611308319, "(0.001820850375443675, 0.0, 0.0, 0.0, 0.0016026889287225204, 0.0, 0.0, 0.0, 0.005283955629798387)", 0.0200101455838, 0.010278487406, 0.129378422685, "(0.001, 0.0, 0.0, 0.0, 0.001, 0.0, 0.0, 0.0, 0.001)", 0.717628855207, 0.897482215375, 0.266597363961, "(0.001, 0.0, 0.0, 0.0, 0.001, 0.0, 0.0, 0.0, 0.001)"
1604566972320804918, 41285, 1604566972, 320722103, base_link, 0.0147855306594, -0.0100135438838, -0.0851489691291, 0.996208196151, "(0.001820850375443675, 0.0, 0.0, 0.0, 0.0016026889287225204, 0.0, 0.0, 0.0, 0.005283955629798387)", 0.00983892807443, 0.0129138436793, 0.0889112523657, "(0.001, 0.0, 0.0, 0.0, 0.001, 0.0, 0.0, 0.0, 0.001)", 0.142111621671, 0.0114407594298, 0.0675124545407, "(0.001, 0.0, 0.0, 0.0, 0.001, 0.0, 0.0, 0.0, 0.001)"
1604566972339540489, 41286, 1604566972, 339447975, base_link, 0.0148350840626, -0.00990881384032, -0.0845937363568, 0.996255808243, "(0.001820850375443675, 0.0, 0.0, 0.0, 0.0016026889287225204, 0.0, 0.0, 0.0, 0.005283955629798387)", 0.0110098142243, 0.0235073194346, 0.133411227683, "(0.001, 0.0, 0.0, 0.0, 0.001, 0.0, 0.0, 0.0, 0.001)", 0.120984505192, 1.00752716883, 0.0497413291196, "(0.001, 0.0, 0.0, 0.0, 0.001, 0.0, 0.0, 0.0, 0.001)"
1604566972360534144, 41287, 1604566972, 360450983, base_link, 0.0148555673114, -0.00988932629012, -0.0840426440349, 0.99630233731, "(0.001820850375443675, 0.0, 0.0, 0.0, 0.0016026889287225204, 0.0, 0.0, 0.0, 0.005283955629798387)", 0.0055562340127, 0.0101326988252, 0.0884414318106, "(0.001, 0.0, 0.0, 0.0, 0.001, 0.0, 0.0, 0.0, 0.001)", -0.347739019028, 0.537926462036, 0.213318207516, "(0.001, 0.0, 0.0, 0.0, 0.001, 0.0, 0.0, 0.0, 0.001)"
1604566972380315493, 41288, 1604566972, 380212068, base_link, 0.0148555673114, -0.00988932629012, -0.0840426440349, 0.99630233731, "(0.001820850375443675, 0.0, 0.0, 0.0, 0.0016026889287225204, 0.0, 0.0, 0.0, 0.005283955629798387)", 0.00408414648707, 0.0124021388237, 0.133646034902, "(0.001, 0.0, 0.0, 0.0, 0.001, 0.0, 0.0, 0.0, 0.001)", -0.290554499557, 0.566288290455, 0.353422995936, "(0.001, 0.0, 0.0, 0.0, 0.001, 0.0, 0.0, 0.0, 0.001)"
1604566972400789408, 41289, 1604566972, 400681972, base_link, 0.0148599474375, -0.00978635545946, -0.0829695979987, 0.996393223089, "(0.001820850375443675, 0.0, 0.0, 0.0, 0.0016026889287225204, 0.0, 0.0, 0.0, 0.005283955629798387)", 0.000534817090671, 0.00921590878066, 0.0852673590737, "(0.001, 0.0, 0.0, 0.0, 0.001, 0.0, 0.0, 0.0, 0.001)", -0.28551471237, 0.570837883299, 0.0433450593352, "(0.001, 0.0, 0.0, 0.0, 0.001, 0.0, 0.0, 0.0, 0.001)"
1604566972419755079, 41290, 1604566972, 419630050, base_link, 0.0148599474375, -0.00978635545946, -0.0829695979987, 0.996393223089, "(0.001820850375443675, 0.0, 0.0, 0.0, 0.0016026889287225204, 0.0, 0.0, 0.0, 0.005283955629798387)", -0.00319282758657, 0.0164325434243, 0.120779835375, "(0.001, 0.0, 0.0, 0.0, 0.001, 0.0, 0.0, 0.0, 0.001)", -0.770326301093, 0.306071587034, 0.619429212771, "(0.001, 0.0, 0.0, 0.0, 0.001, 0.0, 0.0, 0.0, 0.001)"
1604566972440432316, 41291, 1604566972, 440344095, base_link, 0.0147688824196, -0.00963854336997, -0.0820202839924, 0.996474611622, "(0.001820850375443675, 0.0, 0.0, 0.0, 0.0016026889287225204, 0.0, 0.0, 0.0, 0.005283955629798387)", -0.0084909793352, 0.0126129409567, 0.0765708033676, "(0.001, 0.0, 0.0, 0.0, 0.001, 0.0, 0.0, 0.0, 0.001)", -0.0673896922049, 0.531231860381, 0.0372418275864, "(0.001, 0.0, 0.0, 0.0, 0.001, 0.0, 0.0, 0.0, 0.001)"
1604566972459676730, 41292, 1604566972, 459573984, base_link, 0.0147027281024, -0.00960735886804, -0.0815791107977, 0.996512105859, "(0.001820850375443675, 0.0, 0.0, 0.0, 0.0016026889287225204, 0.0, 0.0, 0.0, 0.005283955629798387)", -0.0144812665118, 0.0132786046332, 0.110759099049, "(0.001, 0.0, 0.0, 0.0, 0.001, 0.0, 0.0, 0.0, 0.001)", -0.822188319605, 0.885450109124, 0.411792549639, "(0.001, 0.0, 0.0, 0.0, 0.001, 0.0, 0.0, 0.0, 0.001)"
1604566972480305002, 41293, 1604566972, 480194091, base_link, 0.0146446268021, -0.00955483700202, -0.0811290280212, 0.996550209878, "(0.001820850375443675, 0.0, 0.0, 0.0, 0.0016026889287225204, 0.0, 0.0, 0.0, 0.005283955629798387)", -0.00973291727213, 0.00866461403572, 0.0723495278001, "(0.001, 0.0, 0.0, 0.0, 0.001, 0.0, 0.0, 0.0, 0.001)", -0.317722641016, 0.249222394423, 0.0281105267006, "(0.001, 0.0, 0.0, 0.0, 0.001, 0.0, 0.0, 0.0, 0.001)"
1604566972500215044, 41294, 1604566972, 500107049, base_link, 0.0145572103379, -0.00954816837076, -0.080699993603, 0.996586389201, "(0.001820850375443675, 0.0, 0.0, 0.0, 0.0016026889287225204, 0.0, 0.0, 0.0, 0.005283955629798387)", -0.017939397364, 0.00646634839569, 0.105614607325, "(0.001, 0.0, 0.0, 0.0, 0.001, 0.0, 0.0, 0.0, 0.001)", -0.649715966711, 0.569911138504, 0.00103555356391, "(0.001, 0.0, 0.0, 0.0, 0.001, 0.0, 0.0, 0.0, 0.001)"
1604566972520189200, 41295, 1604566972, 519793987, base_link, 0.0145572103379, -0.00954816837076, -0.080699993603, 0.996586389201, "(0.001820850375443675, 0.0, 0.0, 0.0, 0.0016026889287225204, 0.0, 0.0, 0.0, 0.005283955629798387)", -0.011011639996, 0.00539854817431, 0.069714558608, "(0.001, 0.0, 0.0, 0.0, 0.001, 0.0, 0.0, 0.0, 0.001)", -0.3334365209, 0.165693118716, -0.293052210621, "(0.001, 0.0, 0.0, 0.0, 0.001, 0.0, 0.0, 0.0, 0.001)"
1604566972539537067, 41296, 1604566972, 539459943, base_link, 0.0144371829073, -0.00948172389965, -0.0798183077484, 0.996659772645, "(0.001820850375443675, 0.0, 0.0, 0.0, 0.0016026889287225204, 0.0, 0.0, 0.0, 0.005283955629798387)", -0.0153201589498, 0.00631805136039, 0.105972366817, "(0.001, 0.0, 0.0, 0.0, 0.001, 0.0, 0.0, 0.0, 0.001)", 0.204675278228, 0.311589873345, -0.514916417082, "(0.001, 0.0, 0.0, 0.0, 0.001, 0.0, 0.0, 0.0, 0.001)"
1604566972560264349, 41297, 1604566972, 560152053, base_link, 0.0143956043204, -0.00944201074095, -0.079360541399, 0.996697305845, "(0.001820850375443675, 0.0, 0.0, 0.0, 0.0016026889287225204, 0.0, 0.0, 0.0, 0.005283955629798387)", -0.00717298332849, 0.0076762963657, 0.0729374500501, "(0.001, 0.0, 0.0, 0.0, 0.001, 0.0, 0.0, 0.0, 0.001)", -0.185974804805, 0.318331602585, 0.16017275247, "(0.001, 0.0, 0.0, 0.0, 0.001, 0.0, 0.0, 0.0, 0.001)"
1604566972579781014, 41298, 1604566972, 579668045, base_link, 0.0143771814737, -0.00934483834644, -0.0788549262822, 0.996738617317, "(0.001820850375443675, 0.0, 0.0, 0.0, 0.0016026889287225204, 0.0, 0.0, 0.0, 0.005283955629798387)", -0.00920727659718, 0.0169630217307, 0.115154188588, "(0.001, 0.0, 0.0, 0.0, 0.001, 0.0, 0.0, 0.0, 0.001)", 0.749843233046, 0.387570441269, -0.517508395562, "(0.001, 0.0, 0.0, 0.0, 0.001, 0.0, 0.0, 0.0, 0.001)"
1604566972600535953, 41299, 1604566972, 600436925, base_link, 0.0143246099144, -0.00928780631435, -0.0783370956003, 0.996780739008, "(0.001820850375443675, 0.0, 0.0, 0.0, 0.0016026889287225204, 0.0, 0.0, 0.0, 0.005283955629798387)", -0.00689140982496, 0.0121488791221, 0.0816333627868, "(0.001, 0.0, 0.0, 0.0, 0.001, 0.0, 0.0, 0.0, 0.001)", -0.101910607579, 0.336534255789, -0.13304323494, "(0.001, 0.0, 0.0, 0.0, 0.001, 0.0, 0.0, 0.0, 0.001)"
1604566972619628564, 41300, 1604566972, 619537115, base_link, 0.0142657761565, -0.00921931800964, -0.077777267012, 0.996826057315, "(0.001820850375443675, 0.0, 0.0, 0.0, 0.0016026889287225204, 0.0, 0.0, 0.0, 0.005283955629798387)", -0.0126180492005, 0.0175711760381, 0.129060480998, "(0.001, 0.0, 0.0, 0.0, 0.001, 0.0, 0.0, 0.0, 0.001)", 0.0377245080693, 0.548039944259, -0.28775899232, "(0.001, 0.0, 0.0, 0.0, 0.001, 0.0, 0.0, 0.0, 0.001)"
1604566972640398709, 41301, 1604566972, 640271902, base_link, 0.0141887439067, -0.00918012650766, -0.077218982682, 0.996870921202, "(0.001820850375443675, 0.0, 0.0, 0.0, 0.0016026889287225204, 0.0, 0.0, 0.0, 0.005283955629798387)", -0.0112365269909, 0.00799057173239, 0.0886793942372, "(0.001, 0.0, 0.0, 0.0, 0.001, 0.0, 0.0, 0.0, 0.001)", 0.0384213921877, 0.464799212104, -0.0625508069844, "(0.001, 0.0, 0.0, 0.0, 0.001, 0.0, 0.0, 0.0, 0.001)"
1604566972659869420, 41302, 1604566972, 659559965, base_link, 0.0141507085926, -0.00911291641794, -0.0766385970903, 0.996916865961, "(0.001820850375443675, 0.0, 0.0, 0.0, 0.0016026889287225204, 0.0, 0.0, 0.0, 0.005283955629798387)", -0.0129135508372, 0.0155802897619, 0.136854018107, "(0.001, 0.0, 0.0, 0.0, 0.001, 0.0, 0.0, 0.0, 0.001)", -0.140702258853, 0.288801671421, -0.406725152375, "(0.001, 0.0, 0.0, 0.0, 0.001, 0.0, 0.0, 0.0, 0.001)"
1604566972680344455, 41303, 1604566972, 680249929, base_link, 0.0141011815618, -0.00908146415496, -0.0760521389791, 0.996962765525, "(0.001820850375443675, 0.0, 0.0, 0.0, 0.0016026889287225204, 0.0, 0.0, 0.0, 0.005283955629798387)", -0.00860265401423, 0.00744458818007, 0.0930554424366, "(0.001, 0.0, 0.0, 0.0, 0.001, 0.0, 0.0, 0.0, 0.001)", 0.0265628476918, 0.325065683608, -0.36519835095, "(0.001, 0.0, 0.0, 0.0, 0.001, 0.0, 0.0, 0.0, 0.001)"
1604566972700429850, 41304, 1604566972, 700310945, base_link, 0.0140440583972, -0.00905768955156, -0.0754561466342, 0.997009073489, "(0.001820850375443675, 0.0, 0.0, 0.0, 0.0016026889287225204, 0.0, 0.0, 0.0, 0.005283955629798387)", -0.0123153223377, 0.0105308810879, 0.14243004667, "(0.001, 0.0, 0.0, 0.0, 0.001, 0.0, 0.0, 0.0, 0.001)", -0.532703230442, 0.663903782033, 0.0892544689877, "(0.001, 0.0, 0.0, 0.0, 0.001, 0.0, 0.0, 0.0, 0.001)"
1604566972720265966, 41305, 1604566972, 720124959, base_link, 0.0139869513841, -0.00905964875049, -0.0748608799427, 0.997054731, "(0.001820850375443675, 0.0, 0.0, 0.0, 0.0016026889287225204, 0.0, 0.0, 0.0, 0.005283955629798387)", -0.00903358904213, 0.00109353053875, 0.09503235192, "(0.001, 0.0, 0.0, 0.0, 0.001, 0.0, 0.0, 0.0, 0.001)", -0.168140090573, -0.18871275185, -0.338095156043, "(0.001, 0.0, 0.0, 0.0, 0.001, 0.0, 0.0, 0.0, 0.001)"
1604566972739797551, 41306, 1604566972, 739686012, base_link, 0.0139302789509, -0.00905468196216, -0.0742803094048, 0.997098989919, "(0.001820850375443675, 0.0, 0.0, 0.0, 0.0016026889287225204, 0.0, 0.0, 0.0, 0.005283955629798387)", -0.0128943401811, 0.0018080166885, 0.142028594656, "(0.001, 0.0, 0.0, 0.0, 0.001, 0.0, 0.0, 0.0, 0.001)", -0.409969469171, -0.159975172053, 0.0188951893124, "(0.001, 0.0, 0.0, 0.0, 0.001, 0.0, 0.0, 0.0, 0.001)"
1604566972761012822, 41307, 1604566972, 760209083, base_link, 0.0139249963293, -0.00897400978326, -0.0737216066911, 0.99714125696, "(0.001820850375443675, 0.0, 0.0, 0.0, 0.0016026889287225204, 0.0, 0.0, 0.0, 0.005283955629798387)", -0.00448040146865, 0.00931840542015, 0.0911388385191, "(0.001, 0.0, 0.0, 0.0, 0.001, 0.0, 0.0, 0.0, 0.001)", 0.324966711513, 0.337367207639, 0.229312898333, "(0.001, 0.0, 0.0, 0.0, 0.001, 0.0, 0.0, 0.0, 0.001)"
1604566972780006417, 41308, 1604566972, 779841899, base_link, 0.0138948243711, -0.00881937193858, -0.0732177879769, 0.997180178332, "(0.001820850375443675, 0.0, 0.0, 0.0, 0.0016026889287225204, 0.0, 0.0, 0.0, 0.005283955629798387)", -0.0069627062778, 0.027453358864, 0.127844300347, "(0.001, 0.0, 0.0, 0.0, 0.001, 0.0, 0.0, 0.0, 0.001)", -0.0421197078361, -0.0962194515938, 0.511290274113, "(0.001, 0.0, 0.0, 0.0, 0.001, 0.0, 0.0, 0.0, 0.001)"
1604566972800758083, 41309, 1604566972, 800645112, base_link, 0.0139042329391, -0.00864022235822, -0.0727372023448, 0.997216785989, "(0.001820850375443675, 0.0, 0.0, 0.0, 0.0016026889287225204, 0.0, 0.0, 0.0, 0.005283955629798387)", -0.00318407216521, 0.026884502737, 0.0798372550987, "(0.001, 0.0, 0.0, 0.0, 0.001, 0.0, 0.0, 0.0, 0.001)", -0.362723768113, 0.0769294838945, 0.250219838748, "(0.001, 0.0, 0.0, 0.0, 0.001, 0.0, 0.0, 0.0, 0.001)"
1604566972819696826, 41310, 1604566972, 819616079, base_link, 0.0138803846996, -0.0085477684644, -0.0722828096801, 0.997250954374, "(0.001820850375443675, 0.0, 0.0, 0.0, 0.0016026889287225204, 0.0, 0.0, 0.0, 0.005283955629798387)", -0.00574670136009, 0.0318847123634, 0.112979031491, "(0.001, 0.0, 0.0, 0.0, 0.001, 0.0, 0.0, 0.0, 0.001)", -0.458587512625, -0.0509713333038, 0.438669907664, "(0.001, 0.0, 0.0, 0.0, 0.001, 0.0, 0.0, 0.0, 0.001)"
1604566972840534055, 41311, 1604566972, 840404987, base_link, 0.0138729256119, -0.00846080178202, -0.0718336432579, 0.997284254596, "(0.001820850375443675, 0.0, 0.0, 0.0, 0.0016026889287225204, 0.0, 0.0, 0.0, 0.005283955629798387)", -0.00191046660442, 0.0173476554788, 0.0729386249373, "(0.001, 0.0, 0.0, 0.0, 0.001, 0.0, 0.0, 0.0, 0.001)", -0.525186404564, -0.206862100774, 0.359884672348, "(0.001, 0.0, 0.0, 0.0, 0.001, 0.0, 0.0, 0.0, 0.001)"
1604566972859874792, 41312, 1604566972, 859755039, base_link, 0.0138852348522, -0.00839770097919, -0.0713833587803, 0.997316948097, "(0.001820850375443675, 0.0, 0.0, 0.0, 0.0016026889287225204, 0.0, 0.0, 0.0, 0.005283955629798387)", -0.00109908543002, 0.0198639218097, 0.108682124692, "(0.001, 0.0, 0.0, 0.0, 0.001, 0.0, 0.0, 0.0, 0.001)", -0.307015407092, 0.0955223851212, 0.0633472210577, "(0.001, 0.0, 0.0, 0.0, 0.001, 0.0, 0.0, 0.0, 0.001)"
1604566972880421830, 41313, 1604566972, 880135059, base_link, 0.0139305018418, -0.00840355396572, -0.0709391479383, 0.997347962694, "(0.001820850375443675, 0.0, 0.0, 0.0, 0.0016026889287225204, 0.0, 0.0, 0.0, 0.005283955629798387)", 0.00515337359277, 0.00616840381872, 0.0716642855017, "(0.001, 0.0, 0.0, 0.0, 0.001, 0.0, 0.0, 0.0, 0.001)", -0.437973018268, -0.0433841771733, 0.127168973845, "(0.001, 0.0, 0.0, 0.0, 0.001, 0.0, 0.0, 0.0, 0.001)"
1604566972902408428, 41314, 1604566972, 902245998, base_link, 0.0139870542246, -0.00837770663736, -0.070477261521, 0.997380134128, "(0.001820850375443675, 0.0, 0.0, 0.0, 0.0016026889287225204, 0.0, 0.0, 0.0, 0.005283955629798387)", 0.0106180396762, 0.00740591858537, 0.108564109463, "(0.001, 0.0, 0.0, 0.0, 0.001, 0.0, 0.0, 0.0, 0.001)", 0.20386031916, -0.0978080844437, -0.00862166837702, "(0.001, 0.0, 0.0, 0.0, 0.001, 0.0, 0.0, 0.0, 0.001)"
1604566972920302886, 41315, 1604566972, 920217037, base_link, 0.0140382080418, -0.0083930506162, -0.0700208424815, 0.997411433178, "(0.001896561256877885, 0.0, 0.0, 0.0, 0.0016779146970597042, 0.0, 0.0, 0.0, 0.0053690367100101555)", 0.00811323732848, 0.00148929481989, 0.0736599799708, "(0.001, 0.0, 0.0, 0.0, 0.001, 0.0, 0.0, 0.0, 0.001)", -0.523153650481, -0.109229996927, 0.231885247009, "(0.001, 0.0, 0.0, 0.0, 0.001, 0.0, 0.0, 0.0, 0.001)"
1604566972940070213, 41316, 1604566972, 939977884, base_link, 0.0140932503709, -0.00839829845455, -0.0695680032863, 0.997442299983, "(0.0015268700525764706, 0.0, 0.0, 0.0, 0.0013417444132832884, 0.0, 0.0, 0.0, 0.005064031346880216)", 0.0132111508613, 0.00198310840816, 0.109438983978, "(0.001, 0.0, 0.0, 0.0, 0.001, 0.0, 0.0, 0.0, 0.001)", -0.248689941043, -0.167559392176, 0.00670806849559, "(0.001, 0.0, 0.0, 0.0, 0.001, 0.0, 0.0, 0.0, 0.001)"
1604566972960348397, 41317, 1604566972, 960251092, base_link, 0.0141144720664, -0.00840015241433, -0.0691109338673, 0.99747375802, "(0.0015268700525764706, 0.0, 0.0, 0.0, 0.0013417444132832884, 0.0, 0.0, 0.0, 0.005064031346880216)", 0.00639762112839, 0.000166482376874, 0.0727136996551, "(0.001, 0.0, 0.0, 0.0, 0.001, 0.0, 0.0, 0.0, 0.001)", -0.144535470411, 0.288611530885, 0.230374517622, "(0.001, 0.0, 0.0, 0.0, 0.001, 0.0, 0.0, 0.0, 0.001)"
1604566972979881083, 41318, 1604566972, 979588031, base_link, 0.0141492433324, -0.00833147287446, -0.0686467750527, 0.997505892588, "(0.0015268700525764706, 0.0, 0.0, 0.0, 0.0013417444132832884, 0.0, 0.0, 0.0, 0.005064031346880216)", 0.0081540562649, 0.0110951475671, 0.110546943144, "(0.001, 0.0, 0.0, 0.0, 0.001, 0.0, 0.0, 0.0, 0.001)", -0.393443632058, 0.288242609889, 0.682670617344, "(0.001, 0.0, 0.0, 0.0, 0.001, 0.0, 0.0, 0.0, 0.001)"
1604566972999569000, 41319, 1604566972, 999444007, base_link, 0.0141492433324, -0.00833147287446, -0.0686467750527, 0.997505892588, "(0.0015268700525764706, 0.0, 0.0, 0.0, 0.0013417444132832884, 0.0, 0.0, 0.0, 0.005064031346880216)", -0.000236320876209, 0.0066636796858, 0.0754861123633, "(0.001, 0.0, 0.0, 0.0, 0.001, 0.0, 0.0, 0.0, 0.001)", -0.164170048607, -0.0197503836521, -0.051961385242, "(0.001, 0.0, 0.0, 0.0, 0.001, 0.0, 0.0, 0.0, 0.001)"
1604566973020019793, 41320, 1604566973, 19918918, base_link, 0.0141071152078, -0.00830790752391, -0.0676662822786, 0.997573677588, "(0.0015268700525764706, 0.0, 0.0, 0.0, 0.0013417444132832884, 0.0, 0.0, 0.0, 0.005064031346880216)", -0.00155655369824, 0.00542735340192, 0.11741357881, "(0.001, 0.0, 0.0, 0.0, 0.001, 0.0, 0.0, 0.0, 0.001)", -0.900969401021, 0.455850629408, 0.532449215685, "(0.001, 0.0, 0.0, 0.0, 0.001, 0.0, 0.0, 0.0, 0.001)"
1604566973040564606, 41321, 1604566973, 40463924, base_link, 0.0140405167397, -0.0083074422693, -0.0671505684555, 0.997609468404, "(0.0015268700525764706, 0.0, 0.0, 0.0, 0.0013417444132832884, 0.0, 0.0, 0.0, 0.005064031346880216)", -0.00706409477138, -0.000224891848613, 0.0809093806691, "(0.001, 0.0, 0.0, 0.0, 0.001, 0.0, 0.0, 0.0, 0.001)", -0.146716915421, 0.1724365799, -0.153432950317, "(0.001, 0.0, 0.0, 0.0, 0.001, 0.0, 0.0, 0.0, 0.001)"
1604566973059778365, 41322, 1604566973, 59689044, base_link, 0.01393084629, -0.00840391374029, -0.0666260847067, 0.997645363139, "(0.0015268700525764706, 0.0, 0.0, 0.0, 0.0013417444132832884, 0.0, 0.0, 0.0, 0.005064031346880216)", -0.0180355975753, -0.0114523155344, 0.124577146407, "(0.001, 0.0, 0.0, 0.0, 0.001, 0.0, 0.0, 0.0, 0.001)", -1.31119817018, 0.749357774982, 0.0579485818665, "(0.001, 0.0, 0.0, 0.0, 0.001, 0.0, 0.0, 0.0, 0.001)"
1604566973080378079, 41323, 1604566973, 80295085, base_link, 0.0138560122904, -0.00850561592234, -0.0660808262715, 0.997681807903, "(0.0015268700525764706, 0.0, 0.0, 0.0, 0.0013417444132832884, 0.0, 0.0, 0.0, 0.005064031346880216)", -0.0116329898886, -0.0136899112525, 0.0858965132468, "(0.001, 0.0, 0.0, 0.0, 0.001, 0.0, 0.0, 0.0, 0.001)", -0.538088639659, 0.246555433235, -0.0773769593969, "(0.001, 0.0, 0.0, 0.0, 0.001, 0.0, 0.0, 0.0, 0.001)"
1604566973100360696, 41324, 1604566973, 100261926, base_link, 0.0137378594752, -0.00872249377623, -0.0655374569906, 0.997717410418, "(0.0015268700525764706, 0.0, 0.0, 0.0, 0.0013417444132832884, 0.0, 0.0, 0.0, 0.005064031346880216)", -0.0207237991492, -0.0381780131314, 0.130461551153, "(0.001, 0.0, 0.0, 0.0, 0.001, 0.0, 0.0, 0.0, 0.001)", -1.17518428684, -0.0882608206877, -0.41763544656, "(0.001, 0.0, 0.0, 0.0, 0.001, 0.0, 0.0, 0.0, 0.001)"
1604566973120425251, 41325, 1604566973, 120290040, base_link, 0.0136206974126, -0.00893729839414, -0.0649781088861, 0.997753700402, "(0.0015268700525764706, 0.0, 0.0, 0.0, 0.0013417444132832884, 0.0, 0.0, 0.0, 0.005064031346880216)", -0.0145247147348, -0.0315979584907, 0.0890913403757, "(0.001, 0.0, 0.0, 0.0, 0.001, 0.0, 0.0, 0.0, 0.001)", -0.791832862276, 0.486499813917, 0.179811315817, "(0.001, 0.0, 0.0, 0.0, 0.001, 0.0, 0.0, 0.0, 0.001)"
1604566973139887417, 41326, 1604566973, 139791965, base_link, 0.0134537116837, -0.0091993959502, -0.0644088877626, 0.997790491002, "(0.0015268700525764706, 0.0, 0.0, 0.0, 0.0013417444132832884, 0.0, 0.0, 0.0, 0.005064031346880216)", -0.0299124613342, -0.0581039797184, 0.136074383738, "(0.001, 0.0, 0.0, 0.0, 0.001, 0.0, 0.0, 0.0, 0.001)", -0.221266846758, 0.00462033551168, -0.33539914426, "(0.001, 0.0, 0.0, 0.0, 0.001, 0.0, 0.0, 0.0, 0.001)"
1604566973160879160, 41327, 1604566973, 160787105, base_link, 0.0133088545737, -0.00941680908427, -0.0638476503037, 0.99782647572, "(0.0015268700525764706, 0.0, 0.0, 0.0, 0.0013417444132832884, 0.0, 0.0, 0.0, 0.005064031346880216)", -0.0201952887978, -0.0361506964218, 0.0909890068926, "(0.001, 0.0, 0.0, 0.0, 0.001, 0.0, 0.0, 0.0, 0.001)", -0.503368892871, 0.233628068818, 0.0977168708178, "(0.001, 0.0, 0.0, 0.0, 0.001, 0.0, 0.0, 0.0, 0.001)"
1604566973180098413, 41328, 1604566973, 179951906, base_link, 0.0132079866625, -0.00958286175765, -0.0632983093839, 0.997861233779, "(0.0015268700525764706, 0.0, 0.0, 0.0, 0.0013417444132832884, 0.0, 0.0, 0.0, 0.005064031346880216)", -0.0255856613795, -0.0481880345368, 0.133938027472, "(0.001, 0.0, 0.0, 0.0, 0.001, 0.0, 0.0, 0.0, 0.001)", 0.508865144358, 0.0128762172431, 0.0872429952418, "(0.001, 0.0, 0.0, 0.0, 0.001, 0.0, 0.0, 0.0, 0.001)"
1604566973200364554, 41329, 1604566973, 200263023, base_link, 0.0130747806825, -0.00970824452907, -0.0627294405628, 0.997897698857, "(0.0015268700525764706, 0.0, 0.0, 0.0, 0.0013417444132832884, 0.0, 0.0, 0.0, 0.005064031346880216)", -0.0170917307805, -0.0233970609011, 0.0906791678481, "(0.001, 0.0, 0.0, 0.0, 0.001, 0.0, 0.0, 0.0, 0.001)", 0.333961385937, -0.601644044759, -0.0985940731062, "(0.001, 0.0, 0.0, 0.0, 0.001, 0.0, 0.0, 0.0, 0.001)"
1604566973220258698, 41330, 1604566973, 220141887, base_link, 0.0129815193993, -0.00973286260828, -0.0621623850051, 0.997934160869, "(0.0015268700525764706, 0.0, 0.0, 0.0, 0.0013417444132832884, 0.0, 0.0, 0.0, 0.005064031346880216)", -0.0250937820158, -0.019310778291, 0.136739412727, "(0.001, 0.0, 0.0, 0.0, 0.001, 0.0, 0.0, 0.0, 0.001)", 0.870622988453, 0.0898317305233, -0.0101363663311, "(0.001, 0.0, 0.0, 0.0, 0.001, 0.0, 0.0, 0.0, 0.001)"
1604566973240307197, 41331, 1604566973, 240197896, base_link, 0.0128742032676, -0.00981449132701, -0.0616099959334, 0.997969007059, "(0.0015268700525764706, 0.0, 0.0, 0.0, 0.0013417444132832884, 0.0, 0.0, 0.0, 0.005064031346880216)", -0.0147282512988, -0.0111567587448, 0.0895145648987, "(0.001, 0.0, 0.0, 0.0, 0.001, 0.0, 0.0, 0.0, 0.001)", 0.236720752496, -0.462226914156, -0.0511712704151, "(0.001, 0.0, 0.0, 0.0, 0.001, 0.0, 0.0, 0.0, 0.001)"
1604566973258247916, 41332, 1604566973, 258100986, base_link, 0.0128742032676, -0.00981449132701, -0.0616099959334, 0.997969007059, "(0.0015268700525764706, 0.0, 0.0, 0.0, 0.0013417444132832884, 0.0, 0.0, 0.0, 0.005064031346880216)", -0.0164235891923, -0.00859219357824, 0.135285173545, "(0.001, 0.0, 0.0, 0.0, 0.001, 0.0, 0.0, 0.0, 0.001)", 0.686823891657, -0.468696506829, -0.378053949994, "(0.001, 0.0, 0.0, 0.0, 0.001, 0.0, 0.0, 0.0, 0.001)"
1604566973281984894, 41333, 1604566973, 281884908, base_link, 0.0128004259927, -0.00983928628921, -0.0605155344195, 0.998036676497, "(0.0015268700525764706, 0.0, 0.0, 0.0, 0.0013417444132832884, 0.0, 0.0, 0.0, 0.005064031346880216)", -0.00603629122756, -0.00330911880948, 0.0870940513776, "(0.001, 0.0, 0.0, 0.0, 0.001, 0.0, 0.0, 0.0, 0.001)", 0.251788227614, 0.218839673522, 0.167802159983, "(0.001, 0.0, 0.0, 0.0, 0.001, 0.0, 0.0, 0.0, 0.001)"
1604566973299854650, 41334, 1604566973, 299657106, base_link, 0.0128004259927, -0.00983928628921, -0.0605155344195, 0.998036676497, "(0.0015268700525764706, 0.0, 0.0, 0.0, 0.0013417444132832884, 0.0, 0.0, 0.0, 0.005064031346880216)", -0.00592227804133, 7.89630855697e-05, 0.124593652287, "(0.001, 0.0, 0.0, 0.0, 0.001, 0.0, 0.0, 0.0, 0.001)", -0.154098308243, -1.01642078484, 0.411000633744, "(0.001, 0.0, 0.0, 0.0, 0.001, 0.0, 0.0, 0.0, 0.001)"
1604566973320266077, 41335, 1604566973, 318821907, base_link, 0.0127709848034, -0.00983551588682, -0.0600153051848, 0.998067296187, "(0.0015268700525764706, 0.0, 0.0, 0.0, 0.0013417444132832884, 0.0, 0.0, 0.0, 0.005064031346880216)", -0.00590588023487, -0.00191525637389, 0.0793451538847, "(0.001, 0.0, 0.0, 0.0, 0.001, 0.0, 0.0, 0.0, 0.001)", 0.234529149705, 0.214074516281, -0.148765797866, "(0.001, 0.0, 0.0, 0.0, 0.001, 0.0, 0.0, 0.0, 0.001)"
1604566973339566307, 41336, 1604566973, 339484930, base_link, 0.0127212554439, -0.0098413596876, -0.0591127470515, 0.99812173628, "(0.0015268700525764706, 0.0, 0.0, 0.0, 0.0013417444132832884, 0.0, 0.0, 0.0, 0.005064031346880216)", -0.00387708651626, 0.00112943780572, 0.10924248107, "(0.001, 0.0, 0.0, 0.0, 0.001, 0.0, 0.0, 0.0, 0.001)", -0.415882337299, 0.0599106562386, 0.562692893689, "(0.001, 0.0, 0.0, 0.0, 0.001, 0.0, 0.0, 0.0, 0.001)"
1604566973360105825, 41337, 1604566973, 360030889, base_link, 0.0127103898485, -0.00978643767717, -0.058707235727, 0.998146348038, "(0.0015268700525764706, 0.0, 0.0, 0.0, 0.0013417444132832884, 0.0, 0.0, 0.0, 0.005064031346880216)", -0.00231581257326, 0.00530108333588, 0.0668010526048, "(0.001, 0.0, 0.0, 0.0, 0.001, 0.0, 0.0, 0.0, 0.001)", 0.328601676291, -0.703307237656, -0.196546148904, "(0.001, 0.0, 0.0, 0.0, 0.001, 0.0, 0.0, 0.0, 0.001)"
1604566973379710835, 41338, 1604566973, 379383087, base_link, 0.0127162169343, -0.00973518613498, -0.0583154745474, 0.998169739777, "(0.0015268700525764706, 0.0, 0.0, 0.0, 0.0013417444132832884, 0.0, 0.0, 0.0, 0.005064031346880216)", -0.000722095309085, 0.0118671552312, 0.0963179216135, "(0.001, 0.0, 0.0, 0.0, 0.001, 0.0, 0.0, 0.0, 0.001)", 0.100941412775, 0.430458368625, 0.628625034225, "(0.001, 0.0, 0.0, 0.0, 0.001, 0.0, 0.0, 0.0, 0.001)"
1604566973401561540, 41339, 1604566973, 401473999, base_link, 0.0127356110636, -0.00959719506887, -0.0579201203415, 0.998193847766, "(0.0015268700525764706, 0.0, 0.0, 0.0, 0.0013417444132832884, 0.0, 0.0, 0.0, 0.005064031346880216)", 0.00128753469239, 0.0168532960495, 0.0634456573107, "(0.001, 0.0, 0.0, 0.0, 0.001, 0.0, 0.0, 0.0, 0.001)", 0.364174570539, -0.0514237165529, 0.0251518903506, "(0.001, 0.0, 0.0, 0.0, 0.001, 0.0, 0.0, 0.0, 0.001)"
1604566973419798422, 41340, 1604566973, 419676065, base_link, 0.012694430164, -0.00943310630996, -0.0575291407039, 0.99821854617, "(0.0015268700525764706, 0.0, 0.0, 0.0, 0.0013417444132832884, 0.0, 0.0, 0.0, 0.005064031346880216)", -0.00579083284158, 0.0337736569195, 0.0935134861562, "(0.001, 0.0, 0.0, 0.0, 0.001, 0.0, 0.0, 0.0, 0.001)", 0.347543934863, -0.0868057279668, 0.058987273662, "(0.001, 0.0, 0.0, 0.0, 0.001, 0.0, 0.0, 0.0, 0.001)"
1604566973440455413, 41341, 1604566973, 440172910, base_link, 0.0126849104145, -0.00925401225809, -0.0571214785593, 0.998243754297, "(0.0015268700525764706, 0.0, 0.0, 0.0, 0.0013417444132832884, 0.0, 0.0, 0.0, 0.005064031346880216)", -0.00322766096064, 0.0277657798601, 0.0643838208237, "(0.001, 0.0, 0.0, 0.0, 0.001, 0.0, 0.0, 0.0, 0.001)", -0.0459933892113, 0.0923538726314, 0.338435010038, "(0.001, 0.0, 0.0, 0.0, 0.001, 0.0, 0.0, 0.0, 0.001)"
1604566973459758418, 41342, 1604566973, 459599018, base_link, 0.012642496902, -0.00903963253309, -0.0566706799093, 0.998271950099, "(0.0015268700525764706, 0.0, 0.0, 0.0, 0.0013417444132832884, 0.0, 0.0, 0.0, 0.005064031346880216)", -0.00793499864377, 0.0456185234668, 0.101390887774, "(0.001, 0.0, 0.0, 0.0, 0.001, 0.0, 0.0, 0.0, 0.001)", 0.803312104368, -0.0707435047506, 0.269939681962, "(0.001, 0.0, 0.0, 0.0, 0.001, 0.0, 0.0, 0.0, 0.001)"
1604566973481262432, 41343, 1604566973, 480858087, base_link, 0.0126085921315, -0.00884613832111, -0.0561786823281, 0.99830192071, "(0.0015268700525764706, 0.0, 0.0, 0.0, 0.0013417444132832884, 0.0, 0.0, 0.0, 0.005064031346880216)", -0.00697263197792, 0.033954857028, 0.075265963716, "(0.001, 0.0, 0.0, 0.0, 0.001, 0.0, 0.0, 0.0, 0.001)", -0.258571685869, 0.0144160574649, 0.321188705767, "(0.001, 0.0, 0.0, 0.0, 0.001, 0.0, 0.0, 0.0, 0.001)"
1604566973500017390, 41344, 1604566973, 499929904, base_link, 0.012531314716, -0.00865840746759, -0.0556073499164, 0.998336526812, "(0.0015268700525764706, 0.0, 0.0, 0.0, 0.0013417444132832884, 0.0, 0.0, 0.0, 0.005064031346880216)", -0.0168236528697, 0.0452698917569, 0.125380768754, "(0.001, 0.0, 0.0, 0.0, 0.001, 0.0, 0.0, 0.0, 0.001)", 0.376476341327, 0.0741746349799, -0.106273416258, "(0.001, 0.0, 0.0, 0.0, 0.001, 0.0, 0.0, 0.0, 0.001)"
1604566973520251599, 41345, 1604566973, 520078897, base_link, 0.012464617405, -0.00844485527423, -0.0550066780968, 0.998372467117, "(0.0015268700525764706, 0.0, 0.0, 0.0, 0.0013417444132832884, 0.0, 0.0, 0.0, 0.005064031346880216)", -0.0112858505695, 0.0334963360193, 0.0922946210814, "(0.001, 0.0, 0.0, 0.0, 0.001, 0.0, 0.0, 0.0, 0.001)", 0.200645752965, -0.206567558466, 0.47231698506, "(0.001, 0.0, 0.0, 0.0, 0.001, 0.0, 0.0, 0.0, 0.001)"
1604566973539775973, 41346, 1604566973, 539616107, base_link, 0.0123606038665, -0.00817096866204, -0.0543136922862, 0.998413979055, "(0.0015268700525764706, 0.0, 0.0, 0.0, 0.0013417444132832884, 0.0, 0.0, 0.0, 0.005064031346880216)", -0.0223371236826, 0.0590843201646, 0.15356485936, "(0.001, 0.0, 0.0, 0.0, 0.001, 0.0, 0.0, 0.0, 0.001)", 0.569408321439, -0.0589880191386, -0.0404998006486, "(0.001, 0.0, 0.0, 0.0, 0.001, 0.0, 0.0, 0.0, 0.001)"
1604566973560223317, 41347, 1604566973, 560126066, base_link, 0.0122438259886, -0.00795887986005, -0.0536176629668, 0.998454751691, "(0.0015268700525764706, 0.0, 0.0, 0.0, 0.0013417444132832884, 0.0, 0.0, 0.0, 0.005064031346880216)", -0.0178389921122, 0.0370192466539, 0.108665603614, "(0.001, 0.0, 0.0, 0.0, 0.001, 0.0, 0.0, 0.0, 0.001)", -0.384546443072, 0.450910063882, 0.139484435134, "(0.001, 0.0, 0.0, 0.0, 0.001, 0.0, 0.0, 0.0, 0.001)"
1604566973580701167, 41348, 1604566973, 580470085, base_link, 0.0120914266522, -0.00775307732281, -0.052894151366, 0.998496818195, "(0.0015268700525764706, 0.0, 0.0, 0.0, 0.0013417444132832884, 0.0, 0.0, 0.0, 0.005064031346880216)", -0.0335261364778, 0.051906842362, 0.16916061359, "(0.001, 0.0, 0.0, 0.0, 0.001, 0.0, 0.0, 0.0, 0.001)", -0.592208014126, 0.176102672207, 0.0293707999011, "(0.001, 0.0, 0.0, 0.0, 0.001, 0.0, 0.0, 0.0, 0.001)"
1604566973601617646, 41349, 1604566973, 601495981, base_link, 0.0119349033885, -0.00758393779533, -0.0521538193249, 0.998538943206, "(0.0015268700525764706, 0.0, 0.0, 0.0, 0.0013417444132832884, 0.0, 0.0, 0.0, 0.005064031346880216)", -0.0249554013568, 0.0292179895713, 0.11638565829, "(0.001, 0.0, 0.0, 0.0, 0.001, 0.0, 0.0, 0.0, 0.001)", -0.0891491898353, 0.0751355618868, -0.226219606548, "(0.001, 0.0, 0.0, 0.0, 0.001, 0.0, 0.0, 0.0, 0.001)"
1604566973619550903, 41350, 1604566973, 619232892, base_link, 0.0117643066402, -0.00744482652905, -0.0513933935526, 0.998581441219, "(0.0015268700525764706, 0.0, 0.0, 0.0, 0.0013417444132832884, 0.0, 0.0, 0.0, 0.005064031346880216)", -0.0391513089883, 0.0398525258645, 0.180413370164, "(0.001, 0.0, 0.0, 0.0, 0.001, 0.0, 0.0, 0.0, 0.001)", -1.92127328093, 0.0617866538038, 0.295296581001, "(0.001, 0.0, 0.0, 0.0, 0.001, 0.0, 0.0, 0.0, 0.001)"
1604566973641209566, 41351, 1604566973, 639280080, base_link, 0.0117643066402, -0.00744482652905, -0.0513933935526, 0.998581441219, "(0.0015268700525764706, 0.0, 0.0, 0.0, 0.0013417444132832884, 0.0, 0.0, 0.0, 0.005064031346880216)", -0.0319734146881, 0.0122991518535, 0.117678712972, "(0.001, 0.0, 0.0, 0.0, 0.001, 0.0, 0.0, 0.0, 0.001)", -1.1980261268, 0.114551352455, -0.377812292083, "(0.001, 0.0, 0.0, 0.0, 0.001, 0.0, 0.0, 0.0, 0.001)"
1604566973659683078, 41352, 1604566973, 659595012, base_link, 0.0113453034337, -0.00749134779718, -0.0499748623428, 0.998657937901, "(0.0015268700525764706, 0.0, 0.0, 0.0, 0.0013417444132832884, 0.0, 0.0, 0.0, 0.005064031346880216)", -0.0471361533135, -0.00314642666707, 0.171112134456, "(0.001, 0.0, 0.0, 0.0, 0.001, 0.0, 0.0, 0.0, 0.001)", -2.28559742396, 0.213797530747, -0.13613952705, "(0.001, 0.0, 0.0, 0.0, 0.001, 0.0, 0.0, 0.0, 0.001)"
1604566973680777703, 41353, 1604566973, 680664062, base_link, 0.0111325283428, -0.00756685907013, -0.0492697432385, 0.998694799154, "(0.0015268700525764706, 0.0, 0.0, 0.0, 0.0013417444132832884, 0.0, 0.0, 0.0, 0.005064031346880216)", -0.0320483708396, -0.0106162278338, 0.113000881337, "(0.001, 0.0, 0.0, 0.0, 0.001, 0.0, 0.0, 0.0, 0.001)", -0.636159636952, 0.0557431268027, -0.36930704997, "(0.001, 0.0, 0.0, 0.0, 0.001, 0.0, 0.0, 0.0, 0.001)"
1604566973700607167, 41354, 1604566973, 700491905, base_link, 0.0109573145899, -0.00771463898709, -0.0486201153415, 0.998727443293, "(0.0015268700525764706, 0.0, 0.0, 0.0, 0.0013417444132832884, 0.0, 0.0, 0.0, 0.005064031346880216)", -0.0430797350172, -0.0266440369424, 0.163366319915, "(0.001, 0.0, 0.0, 0.0, 0.001, 0.0, 0.0, 0.0, 0.001)", -2.03974389887, -0.27366466311, -0.525523533719, "(0.001, 0.0, 0.0, 0.0, 0.001, 0.0, 0.0, 0.0, 0.001)"
1604566973720124371, 41355, 1604566973, 719871997, base_link, 0.0109573145899, -0.00771463898709, -0.0486201153415, 0.998727443293, "(0.0015268700525764706, 0.0, 0.0, 0.0, 0.0013417444132832884, 0.0, 0.0, 0.0, 0.005064031346880216)", -0.024099978552, -0.0241227964309, 0.10537892524, "(0.001, 0.0, 0.0, 0.0, 0.001, 0.0, 0.0, 0.0, 0.001)", -0.788677565342, -0.303846779993, -0.640886308357, "(0.001, 0.0, 0.0, 0.0, 0.001, 0.0, 0.0, 0.0, 0.001)"
1604566973739576791, 41356, 1604566973, 739455938, base_link, 0.0107094593644, -0.00806307168051, -0.0473593528083, 0.998787958506, "(0.0015268700525764706, 0.0, 0.0, 0.0, 0.0013417444132832884, 0.0, 0.0, 0.0, 0.005064031346880216)", -0.0283891168587, -0.0418830745511, 0.152170325887, "(0.001, 0.0, 0.0, 0.0, 0.001, 0.0, 0.0, 0.0, 0.001)", -0.867249697221, -0.293055045319, -1.02376031541, "(0.001, 0.0, 0.0, 0.0, 0.001, 0.0, 0.0, 0.0, 0.001)"
1604566973760446111, 41357, 1604566973, 760323047, base_link, 0.0106433337937, -0.00818875674512, -0.0467477347284, 0.998816456115, "(0.0015268700525764706, 0.0, 0.0, 0.0, 0.0013417444132832884, 0.0, 0.0, 0.0, 0.005064031346880216)", -0.012192069009, -0.0222030540047, 0.0991891801276, "(0.001, 0.0, 0.0, 0.0, 0.001, 0.0, 0.0, 0.0, 0.001)", -0.5104064073, -0.151273498695, -0.438212606304, "(0.001, 0.0, 0.0, 0.0, 0.001, 0.0, 0.0, 0.0, 0.001)"
1604566973779999199, 41358, 1604566973, 779901981, base_link, 0.0106242544407, -0.00829565700854, -0.0461761873701, 0.998842363445, "(0.0015268700525764706, 0.0, 0.0, 0.0, 0.0013417444132832884, 0.0, 0.0, 0.0, 0.005064031346880216)", -0.00864007395934, -0.0284786705891, 0.141971015505, "(0.001, 0.0, 0.0, 0.0, 0.001, 0.0, 0.0, 0.0, 0.001)", -0.472498989837, -0.745023388824, -0.764800659167, "(0.001, 0.0, 0.0, 0.0, 0.001, 0.0, 0.0, 0.0, 0.001)"
1604566973801205645, 41359, 1604566973, 801119089, base_link, 0.0106230357781, -0.00837123604547, -0.0455802358179, 0.998869118364, "(0.0015268700525764706, 0.0, 0.0, 0.0, 0.0013417444132832884, 0.0, 0.0, 0.0, 0.005064031346880216)", -0.00108356933044, -0.0137149818101, 0.0947262778389, "(0.001, 0.0, 0.0, 0.0, 0.001, 0.0, 0.0, 0.0, 0.001)", -0.24119801662, -0.0947644062056, -0.135047557074, "(0.001, 0.0, 0.0, 0.0, 0.001, 0.0, 0.0, 0.0, 0.001)"
1604566973819598600, 41360, 1604566973, 819452047, base_link, 0.0106426532863, -0.00835604900498, -0.044911350479, 0.998899334755, "(0.0015268700525764706, 0.0, 0.0, 0.0, 0.0013417444132832884, 0.0, 0.0, 0.0, 0.005064031346880216)", 0.00231864129533, -0.00810153022972, 0.150973072902, "(0.001, 0.0, 0.0, 0.0, 0.001, 0.0, 0.0, 0.0, 0.001)", 1.26048113383, -0.0112309654473, -0.566433490198, "(0.001, 0.0, 0.0, 0.0, 0.001, 0.0, 0.0, 0.0, 0.001)"
1604566973840581296, 41361, 1604566973, 840462923, base_link, 0.0107003827982, -0.00838991133961, -0.0442173800662, 0.998929394149, "(0.0015268700525764706, 0.0, 0.0, 0.0, 0.0013417444132832884, 0.0, 0.0, 0.0, 0.005064031346880216)", 0.00736067392241, -0.00163615861882, 0.108590951582, "(0.001, 0.0, 0.0, 0.0, 0.001, 0.0, 0.0, 0.0, 0.001)", -0.112843494933, -0.702706369006, 0.0363805207017, "(0.001, 0.0, 0.0, 0.0, 0.001, 0.0, 0.0, 0.0, 0.001)"
1604566973859919054, 41362, 1604566973, 859812021, base_link, 0.0107513799066, -0.00844016447301, -0.0434526559191, 0.998961980331, "(0.0015268700525764706, 0.0, 0.0, 0.0, 0.0013417444132832884, 0.0, 0.0, 0.0, 0.005064031346880216)", 0.0122517755691, -0.00747318760004, 0.173767273165, "(0.001, 0.0, 0.0, 0.0, 0.001, 0.0, 0.0, 0.0, 0.001)", 0.664808524873, 0.00767624710408, -0.736734712584, "(0.001, 0.0, 0.0, 0.0, 0.001, 0.0, 0.0, 0.0, 0.001)"
1604566973879700534, 41363, 1604566973, 879573106, base_link, 0.0107513799066, -0.00844016447301, -0.0434526559191, 0.998961980331, "(0.0015268700525764706, 0.0, 0.0, 0.0, 0.0013417444132832884, 0.0, 0.0, 0.0, 0.005064031346880216)", 0.012170547181, -0.00444148392251, 0.117365977428, "(0.001, 0.0, 0.0, 0.0, 0.001, 0.0, 0.0, 0.0, 0.001)", -0.025105932801, 0.551681775731, -0.0474768739812, "(0.001, 0.0, 0.0, 0.0, 0.001, 0.0, 0.0, 0.0, 0.001)"
1604566973902024436, 41364, 1604566973, 901931047, base_link, 0.0109163127546, -0.00846379844922, -0.0419250866042, 0.999025267621, "(0.0015268700525764706, 0.0, 0.0, 0.0, 0.0013417444132832884, 0.0, 0.0, 0.0, 0.005064031346880216)", 0.0198807277764, -0.000341985599881, 0.183750440441, "(0.001, 0.0, 0.0, 0.0, 0.001, 0.0, 0.0, 0.0, 0.001)", 1.25205707191, -0.959449903782, -0.0318069225613, "(0.001, 0.0, 0.0, 0.0, 0.001, 0.0, 0.0, 0.0, 0.001)"
1604566973919278464, 41365, 1604566973, 919133901, base_link, 0.0109163127546, -0.00846379844922, -0.0419250866042, 0.999025267621, "(0.0015268700525764706, 0.0, 0.0, 0.0, 0.0013417444132832884, 0.0, 0.0, 0.0, 0.005064031346880216)", 0.0139224776626, 0.00651903728955, 0.128299328507, "(0.001, 0.0, 0.0, 0.0, 0.001, 0.0, 0.0, 0.0, 0.001)", 0.884818843272, 0.157729132573, -0.523067225383, "(0.001, 0.0, 0.0, 0.0, 0.001, 0.0, 0.0, 0.0, 0.001)"
1604566973939611246, 41366, 1604566973, 939496994, base_link, 0.0110806943697, -0.008236412368, -0.0402860365782, 0.999092795981, "(0.0013182493482314511, 0.0, 0.0, 0.0, 0.0011581203700148368, 0.0, 0.0, 0.0, 0.0048818380817255425)", 0.0211806967521, 0.0292436815872, 0.195291978609, "(0.001, 0.0, 0.0, 0.0, 0.001, 0.0, 0.0, 0.0, 0.001)", 0.506207592153, 0.835341577044, 0.50211979936, "(0.001, 0.0, 0.0, 0.0, 0.001, 0.0, 0.0, 0.0, 0.001)"
1604566973960408034, 41367, 1604566973, 960309028, base_link, 0.0111093379726, -0.00810151110502, -0.0394540870465, 0.999126780315, "(0.0013182493482314511, 0.0, 0.0, 0.0, 0.0011581203700148368, 0.0, 0.0, 0.0, 0.0048818380817255425)", 0.00776773223243, 0.0230047170655, 0.13111641433, "(0.001, 0.0, 0.0, 0.0, 0.001, 0.0, 0.0, 0.0, 0.001)", 0.83920980746, -0.702979661837, -0.0454393420322, "(0.001, 0.0, 0.0, 0.0, 0.001, 0.0, 0.0, 0.0, 0.001)"
1604566973980232078, 41368, 1604566973, 980115890, base_link, 0.0112291159815, -0.00789626684144, -0.0386043662695, 0.999160276847, "(0.0013182493482314511, 0.0, 0.0, 0.0, 0.0011581203700148368, 0.0, 0.0, 0.0, 0.0048818380817255425)", 0.0188426001381, 0.0460874958736, 0.200510004526, "(0.001, 0.0, 0.0, 0.0, 0.001, 0.0, 0.0, 0.0, 0.001)", 0.035723388852, 0.0937374858455, 0.612206853342, "(0.001, 0.0, 0.0, 0.0, 0.001, 0.0, 0.0, 0.0, 0.001)"
1604566974001240862, 41369, 1604566974, 1095056, base_link, 0.01131730799, -0.00772168641679, -0.0377148406638, 0.999194618126, "(0.0013182493482314511, 0.0, 0.0, 0.0, 0.0011581203700148368, 0.0, 0.0, 0.0, 0.0048818380817255425)", 0.0151211892723, 0.0293951502681, 0.138134612554, "(0.001, 0.0, 0.0, 0.0, 0.001, 0.0, 0.0, 0.0, 0.001)", 0.277925783436, 0.164703196658, 0.0621882018329, "(0.001, 0.0, 0.0, 0.0, 0.001, 0.0, 0.0, 0.0, 0.001)"
1604566974020121763, 41370, 1604566974, 20029067, base_link, 0.0113566467588, -0.0075473603819, -0.0368129689537, 0.999229137507, "(0.0013182493482314511, 0.0, 0.0, 0.0, 0.0011581203700148368, 0.0, 0.0, 0.0, 0.0048818380817255425)", 0.0157281242469, 0.0450464766713, 0.212739973727, "(0.001, 0.0, 0.0, 0.0, 0.001, 0.0, 0.0, 0.0, 0.001)", -0.44720639472, -0.433927448067, 0.402491383483, "(0.001, 0.0, 0.0, 0.0, 0.001, 0.0, 0.0, 0.0, 0.001)"
1604566974040162109, 41371, 1604566974, 40066957, base_link, 0.011442229975, -0.00729424690491, -0.0358823271922, 0.999263893039, "(0.0013182493482314511, 0.0, 0.0, 0.0, 0.0011581203700148368, 0.0, 0.0, 0.0, 0.0048818380817255425)", 0.0109397501228, 0.037301871726, 0.145682909977, "(0.001, 0.0, 0.0, 0.0, 0.001, 0.0, 0.0, 0.0, 0.001)", 0.375203363184, 0.355284708232, -0.108678292074, "(0.001, 0.0, 0.0, 0.0, 0.001, 0.0, 0.0, 0.0, 0.001)"
1604566974059812609, 41372, 1604566974, 59715986, base_link, 0.0115511816877, -0.0070363052481, -0.0349328969552, 0.99929813035, "(0.0013182493482314511, 0.0, 0.0, 0.0, 0.0011581203700148368, 0.0, 0.0, 0.0, 0.0048818380817255425)", 0.0228160039136, 0.0628388464991, 0.22256888775, "(0.001, 0.0, 0.0, 0.0, 0.001, 0.0, 0.0, 0.0, 0.001)", -0.0896877327937, -0.682075934442, 0.226007570021, "(0.001, 0.0, 0.0, 0.0, 0.001, 0.0, 0.0, 0.0, 0.001)"
1604566974080181941, 41373, 1604566974, 80008029, base_link, 0.0116760573779, -0.00672120009043, -0.0339331241574, 0.999333296873, "(0.0013182493482314511, 0.0, 0.0, 0.0, 0.0011581203700148368, 0.0, 0.0, 0.0, 0.0048818380817255425)", 0.0171192489931, 0.0486790307516, 0.155373564403, "(0.001, 0.0, 0.0, 0.0, 0.001, 0.0, 0.0, 0.0, 0.001)", -0.15629644002, -0.0691468388851, -0.105544314125, "(0.001, 0.0, 0.0, 0.0, 0.001, 0.0, 0.0, 0.0, 0.001)"
1604566974099987162, 41374, 1604566974, 98754882, base_link, 0.0116760573779, -0.00672120009043, -0.0339331241574, 0.999333296873, "(0.0013182493482314511, 0.0, 0.0, 0.0, 0.0011581203700148368, 0.0, 0.0, 0.0, 0.0048818380817255425)", 0.026800636725, 0.0711180379317, 0.23928214116, "(0.001, 0.0, 0.0, 0.0, 0.001, 0.0, 0.0, 0.0, 0.001)", -0.386153800476, 0.79500829793, -0.213332788792, "(0.001, 0.0, 0.0, 0.0, 0.001, 0.0, 0.0, 0.0, 0.001)"
1604566974120090861, 41375, 1604566974, 119976043, base_link, 0.0118850898296, -0.00616027795905, -0.0318551020482, 0.999402845748, "(0.0013182493482314511, 0.0, 0.0, 0.0, 0.0011581203700148368, 0.0, 0.0, 0.0, 0.0048818380817255425)", 0.0167308237764, 0.0491558249552, 0.164915717607, "(0.001, 0.0, 0.0, 0.0, 0.001, 0.0, 0.0, 0.0, 0.001)", -0.533900702697, -0.230558196072, 0.00921795921384, "(0.001, 0.0, 0.0, 0.0, 0.001, 0.0, 0.0, 0.0, 0.001)"
1604566974139799520, 41376, 1604566974, 139692068, base_link, 0.0119786028064, -0.00595051379812, -0.0307631898842, 0.999437206936, "(0.0013182493482314511, 0.0, 0.0, 0.0, 0.0011581203700148368, 0.0, 0.0, 0.0, 0.0048818380817255425)", 0.0226843382415, 0.062477444054, 0.254808479134, "(0.001, 0.0, 0.0, 0.0, 0.001, 0.0, 0.0, 0.0, 0.001)", -0.770967251722, 0.0192142477807, -0.327939179076, "(0.001, 0.0, 0.0, 0.0, 0.001, 0.0, 0.0, 0.0, 0.001)"
1604566974160445618, 41377, 1604566974, 160348892, base_link, 0.0120659741207, -0.0057672934752, -0.0296660692619, 0.999470397225, "(0.0013182493482314511, 0.0, 0.0, 0.0, 0.0011581203700148368, 0.0, 0.0, 0.0, 0.0048818380817255425)", 0.0150272760573, 0.0358228127244, 0.173646865036, "(0.001, 0.0, 0.0, 0.0, 0.001, 0.0, 0.0, 0.0, 0.001)", -0.986962149504, 0.35830607829, 0.299564858443, "(0.001, 0.0, 0.0, 0.0, 0.001, 0.0, 0.0, 0.0, 0.001)"
1604566974180033055, 41378, 1604566974, 179924011, base_link, 0.0121385829161, -0.00559556456825, -0.0285323048337, 0.999503502767, "(0.0013182493482314511, 0.0, 0.0, 0.0, 0.0011581203700148368, 0.0, 0.0, 0.0, 0.0048818380817255425)", 0.0193245381885, 0.0483720053116, 0.265727667559, "(0.001, 0.0, 0.0, 0.0, 0.001, 0.0, 0.0, 0.0, 0.001)", -0.439649537538, 0.130981054348, -0.417054199041, "(0.001, 0.0, 0.0, 0.0, 0.001, 0.0, 0.0, 0.0, 0.001)"
1604566974201006088, 41379, 1604566974, 200911045, base_link, 0.0121903009439, -0.00548307615355, -0.0273800495489, 0.999535724887, "(0.0013182493482314511, 0.0, 0.0, 0.0, 0.0011581203700148368, 0.0, 0.0, 0.0, 0.0048818380817255425)", 0.0106523668086, 0.0246489601678, 0.182050338483, "(0.001, 0.0, 0.0, 0.0, 0.001, 0.0, 0.0, 0.0, 0.001)", -1.08778106255, 0.162669207327, 0.0633853887035, "(0.001, 0.0, 0.0, 0.0, 0.001, 0.0, 0.0, 0.0, 0.001)"
1604566974220046303, 41380, 1604566974, 219846963, base_link, 0.012272202212, -0.00535909620338, -0.0262348375987, 0.999566109088, "(0.0013182493482314511, 0.0, 0.0, 0.0, 0.0011581203700148368, 0.0, 0.0, 0.0, 0.0048818380817255425)", 0.0171335111027, 0.0354885208051, 0.273210550598, "(0.001, 0.0, 0.0, 0.0, 0.001, 0.0, 0.0, 0.0, 0.001)", -1.32903091896, -0.135864248969, -0.436016224056, "(0.001, 0.0, 0.0, 0.0, 0.001, 0.0, 0.0, 0.0, 0.001)"
1604566974240494996, 41381, 1604566974, 240125894, base_link, 0.0123515110145, -0.00525565121873, -0.0251155314913, 0.999594431949, "(0.0013182493482314511, 0.0, 0.0, 0.0, 0.0011581203700148368, 0.0, 0.0, 0.0, 0.0048818380817255425)", 0.0134451588754, 0.0194054178655, 0.180109053113, "(0.001, 0.0, 0.0, 0.0, 0.001, 0.0, 0.0, 0.0, 0.001)", -1.18832378194, -0.0689107214328, -0.25137849675, "(0.001, 0.0, 0.0, 0.0, 0.001, 0.0, 0.0, 0.0, 0.001)"
1604566974259467010, 41382, 1604566974, 259366989, base_link, 0.0124317390418, -0.00515112358983, -0.0239917257559, 0.999621585844, "(0.0013182493482314511, 0.0, 0.0, 0.0, 0.0011581203700148368, 0.0, 0.0, 0.0, 0.0048818380817255425)", 0.0204101075154, 0.0292246981441, 0.269049731394, "(0.001, 0.0, 0.0, 0.0, 0.001, 0.0, 0.0, 0.0, 0.001)", -1.12628696559, 0.324994016275, 0.233389161313, "(0.001, 0.0, 0.0, 0.0, 0.001, 0.0, 0.0, 0.0, 0.001)"
1604566974280470592, 41383, 1604566974, 280354022, base_link, 0.0124793428273, -0.00509248415097, -0.0228518446213, 0.999648000951, "(0.0013182493482314511, 0.0, 0.0, 0.0, 0.0011581203700148368, 0.0, 0.0, 0.0, 0.0048818380817255425)", 0.0101980073511, 0.015950846605, 0.180556137709, "(0.001, 0.0, 0.0, 0.0, 0.001, 0.0, 0.0, 0.0, 0.001)", -0.68627045599, -0.0191380944772, 0.305489824476, "(0.001, 0.0, 0.0, 0.0, 0.001, 0.0, 0.0, 0.0, 0.001)"
1604566974301104288, 41384, 1604566974, 301019906, base_link, 0.0124946851828, -0.00509095449154, -0.0216859446548, 0.999673789208, "(0.0013182493482314511, 0.0, 0.0, 0.0, 0.0011581203700148368, 0.0, 0.0, 0.0, 0.0048818380817255425)", 0.00933943246523, 0.013429367645, 0.276185157827, "(0.001, 0.0, 0.0, 0.0, 0.001, 0.0, 0.0, 0.0, 0.001)", -1.82633473615, -0.274268636946, 0.667080182729, "(0.001, 0.0, 0.0, 0.0, 0.001, 0.0, 0.0, 0.0, 0.001)"
1604566974320352101, 41385, 1604566974, 320260047, base_link, 0.0125106786267, -0.00514215897383, -0.0205220632864, 0.999697897387, "(0.0013182493482314511, 0.0, 0.0, 0.0, 0.0011581203700148368, 0.0, 0.0, 0.0, 0.0048818380817255425)", 0.00406327023796, -0.00195057386728, 0.185108927882, "(0.001, 0.0, 0.0, 0.0, 0.001, 0.0, 0.0, 0.0, 0.001)", -0.831639887205, -0.0899535685202, 0.502060574968, "(0.001, 0.0, 0.0, 0.0, 0.001, 0.0, 0.0, 0.0, 0.001)"
1604566974339915254, 41386, 1604566974, 338154077, base_link, 0.0125106786267, -0.00514215897383, -0.0205220632864, 0.999697897387, "(0.0013182493482314511, 0.0, 0.0, 0.0, 0.0011581203700148368, 0.0, 0.0, 0.0, 0.0048818380817255425)", -0.000208656928937, -0.0210836313357, 0.280301834257, "(0.001, 0.0, 0.0, 0.0, 0.001, 0.0, 0.0, 0.0, 0.001)", -1.4929411046, -0.206522098482, 1.1211937133, "(0.001, 0.0, 0.0, 0.0, 0.001, 0.0, 0.0, 0.0, 0.001)"
1604566974360122034, 41387, 1604566974, 360029935, base_link, 0.0124276872094, -0.00544762555421, -0.0181486528116, 0.999743218215, "(0.0013182493482314511, 0.0, 0.0, 0.0, 0.0011581203700148368, 0.0, 0.0, 0.0, 0.0048818380817255425)", -0.00428014867334, -0.0192424821307, 0.189603406189, "(0.001, 0.0, 0.0, 0.0, 0.001, 0.0, 0.0, 0.0, 0.001)", -0.365389061981, 0.322389263139, 0.651835639211, "(0.001, 0.0, 0.0, 0.0, 0.001, 0.0, 0.0, 0.0, 0.001)"
1604566974379730095, 41388, 1604566974, 379617929, base_link, 0.0123697327895, -0.00567798559667, -0.0169463578916, 0.999763757667, "(0.0013182493482314511, 0.0, 0.0, 0.0, 0.0011581203700148368, 0.0, 0.0, 0.0, 0.0048818380817255425)", -0.00872741608671, -0.0401016678732, 0.286834952621, "(0.001, 0.0, 0.0, 0.0, 0.001, 0.0, 0.0, 0.0, 0.001)", -1.16495585799, -0.250294614167, 0.588311182827, "(0.001, 0.0, 0.0, 0.0, 0.001, 0.0, 0.0, 0.0, 0.001)"
1604566974400899736, 41389, 1604566974, 400628089, base_link, 0.0123326847869, -0.00590435608974, -0.0157305229209, 0.999782773463, "(0.0013182493482314511, 0.0, 0.0, 0.0, 0.0011581203700148368, 0.0, 0.0, 0.0, 0.0048818380817255425)", -0.00560342024279, -0.032831800606, 0.193868193796, "(0.001, 0.0, 0.0, 0.0, 0.001, 0.0, 0.0, 0.0, 0.001)", -0.388414198981, -0.0497768578101, 0.108874664429, "(0.001, 0.0, 0.0, 0.0, 0.001, 0.0, 0.0, 0.0, 0.001)"
1604566974419827301, 41390, 1604566974, 419738054, base_link, 0.0122690204663, -0.00613009672487, -0.0145307430121, 0.99980035535, "(0.0013182493482314511, 0.0, 0.0, 0.0, 0.0011581203700148368, 0.0, 0.0, 0.0, 0.0048818380817255425)", -0.010634020322, -0.0497932845342, 0.289390110349, "(0.001, 0.0, 0.0, 0.0, 0.001, 0.0, 0.0, 0.0, 0.001)", -0.814968513068, 0.607250333322, 0.436370303564, "(0.001, 0.0, 0.0, 0.0, 0.001, 0.0, 0.0, 0.0, 0.001)"
1604566974440429389, 41391, 1604566974, 440279006, base_link, 0.0121827127752, -0.00635435949046, -0.0133481869299, 0.999816497929, "(0.0013182493482314511, 0.0, 0.0, 0.0, 0.0011581203700148368, 0.0, 0.0, 0.0, 0.0048818380817255425)", -0.0103678851574, -0.033485751231, 0.190599231239, "(0.001, 0.0, 0.0, 0.0, 0.001, 0.0, 0.0, 0.0, 0.001)", -0.63069055627, -0.365757073253, 0.145291710067, "(0.001, 0.0, 0.0, 0.0, 0.001, 0.0, 0.0, 0.0, 0.001)"
1604566974459602313, 41392, 1604566974, 459502935, base_link, 0.0121288905653, -0.00655513831679, -0.0121683127823, 0.999830911874, "(0.0013182493482314511, 0.0, 0.0, 0.0, 0.0011581203700148368, 0.0, 0.0, 0.0, 0.0048818380817255425)", -0.0131044503412, -0.0492290111863, 0.283784660964, "(0.001, 0.0, 0.0, 0.0, 0.001, 0.0, 0.0, 0.0, 0.001)", -0.00662217082277, -0.024227910641, -0.136586606038, "(0.001, 0.0, 0.0, 0.0, 0.001, 0.0, 0.0, 0.0, 0.001)"
1604566974480434601, 41393, 1604566974, 480321884, base_link, 0.0120914281138, -0.00668707638459, -0.0110035174081, 0.99984398932, "(0.0013182493482314511, 0.0, 0.0, 0.0, 0.0011581203700148368, 0.0, 0.0, 0.0, 0.0048818380817255425)", -0.00539625638976, -0.0228823491491, 0.187877202389, "(0.001, 0.0, 0.0, 0.0, 0.001, 0.0, 0.0, 0.0, 0.001)", -0.374210695028, -0.0515345112568, 0.130033286818, "(0.001, 0.0, 0.0, 0.0, 0.001, 0.0, 0.0, 0.0, 0.001)"
1604566974501062937, 41394, 1604566974, 500924110, base_link, 0.0120137141552, -0.0068033305748, -0.00985045801516, 0.999856166577, "(0.0013182493482314511, 0.0, 0.0, 0.0, 0.0011581203700148368, 0.0, 0.0, 0.0, 0.0048818380817255425)", -0.0128315998379, -0.0289421946723, 0.27789657611, "(0.001, 0.0, 0.0, 0.0, 0.001, 0.0, 0.0, 0.0, 0.001)", -0.194681063101, 0.117247147492, -0.422870753969, "(0.001, 0.0, 0.0, 0.0, 0.001, 0.0, 0.0, 0.0, 0.001)"
1604566974520284979, 41395, 1604566974, 520196914, base_link, 0.0119676905173, -0.00691822065536, -0.00870982273246, 0.999866516888, "(0.0013182493482314511, 0.0, 0.0, 0.0, 0.0011581203700148368, 0.0, 0.0, 0.0, 0.0048818380817255425)", -0.00753100093459, -0.0168624266835, 0.183638179083, "(0.001, 0.0, 0.0, 0.0, 0.001, 0.0, 0.0, 0.0, 0.001)", -0.350385365569, 0.263294255067, 0.100477106244, "(0.001, 0.0, 0.0, 0.0, 0.001, 0.0, 0.0, 0.0, 0.001)"
1604566974539968360, 41396, 1604566974, 539868116, base_link, 0.0118995814106, -0.00699115399616, -0.00755173736682, 0.999876239837, "(0.0013182493482314511, 0.0, 0.0, 0.0, 0.0011581203700148368, 0.0, 0.0, 0.0, 0.0048818380817255425)", -0.0124810560177, -0.0191028219691, 0.276306011204, "(0.001, 0.0, 0.0, 0.0, 0.001, 0.0, 0.0, 0.0, 0.001)", 0.0940190311842, -0.498960421604, -0.60697481137, "(0.001, 0.0, 0.0, 0.0, 0.001, 0.0, 0.0, 0.0, 0.001)"
1604566974560240485, 41397, 1604566974, 560050010, base_link, 0.0118525093029, -0.00707789723492, -0.00640397274002, 0.999884198559, "(0.0013182493482314511, 0.0, 0.0, 0.0, 0.0011581203700148368, 0.0, 0.0, 0.0, 0.0048818380817255425)", -0.00708321908701, -0.0113106203816, 0.183659977222, "(0.001, 0.0, 0.0, 0.0, 0.001, 0.0, 0.0, 0.0, 0.001)", -0.35655906475, 0.0555306936987, -0.342112329756, "(0.001, 0.0, 0.0, 0.0, 0.001, 0.0, 0.0, 0.0, 0.001)"
1604566974580027577, 41398, 1604566974, 579925060, base_link, 0.011871144084, -0.00715206338126, -0.00524121280732, 0.999890220782, "(0.0013182493482314511, 0.0, 0.0, 0.0, 0.0011581203700148368, 0.0, 0.0, 0.0, 0.0048818380817255425)", -0.00136738133763, -0.0159787131127, 0.277083903814, "(0.001, 0.0, 0.0, 0.0, 0.001, 0.0, 0.0, 0.0, 0.001)", -0.212852765033, -0.201003358742, -0.823497481109, "(0.001, 0.0, 0.0, 0.0, 0.001, 0.0, 0.0, 0.0, 0.001)"
1604566974601300690, 41399, 1604566974, 599839925, base_link, 0.011871144084, -0.00715206338126, -0.00524121280732, 0.999890220782, "(0.0013182493482314511, 0.0, 0.0, 0.0, 0.0011581203700148368, 0.0, 0.0, 0.0, 0.0048818380817255425)", 0.00214713730063, -0.0126207366503, 0.185236893073, "(0.001, 0.0, 0.0, 0.0, 0.001, 0.0, 0.0, 0.0, 0.001)", -0.592604012938, -0.469856479849, -0.498150543693, "(0.001, 0.0, 0.0, 0.0, 0.001, 0.0, 0.0, 0.0, 0.001)"
1604566974619498058, 41400, 1604566974, 619355916, base_link, 0.011934497484, -0.00737401488648, -0.00290354008858, 0.999897375299, "(0.0013182493482314511, 0.0, 0.0, 0.0, 0.0011581203700148368, 0.0, 0.0, 0.0, 0.0048818380817255425)", 0.00980076698209, -0.0223531674212, 0.280209915289, "(0.001, 0.0, 0.0, 0.0, 0.001, 0.0, 0.0, 0.0, 0.001)", -0.587814461815, 0.0713764092947, -0.804060605936, "(0.001, 0.0, 0.0, 0.0, 0.001, 0.0, 0.0, 0.0, 0.001)"
1604566974640216000, 41401, 1604566974, 640111923, base_link, 0.0119825292028, -0.00752474827327, -0.00170778226461, 0.999898435161, "(0.0013182493482314511, 0.0, 0.0, 0.0, 0.0011581203700148368, 0.0, 0.0, 0.0, 0.0048818380817255425)", 0.0084188818762, -0.0189843774257, 0.188983250008, "(0.001, 0.0, 0.0, 0.0, 0.001, 0.0, 0.0, 0.0, 0.001)", -0.234593119261, -0.0947636391324, -0.82407836841, "(0.001, 0.0, 0.0, 0.0, 0.001, 0.0, 0.0, 0.0, 0.001)"
1604566974659807630, 41402, 1604566974, 659701108, base_link, 0.0120848687968, -0.00768487954047, -0.000507531318253, 0.99989731522, "(0.0013182493482314511, 0.0, 0.0, 0.0, 0.0011581203700148368, 0.0, 0.0, 0.0, 0.0048818380817255425)", 0.0204187057114, -0.0328547234394, 0.287172275514, "(0.001, 0.0, 0.0, 0.0, 0.001, 0.0, 0.0, 0.0, 0.001)", -0.983848356786, -0.0405084799522, -0.255350653686, "(0.001, 0.0, 0.0, 0.0, 0.001, 0.0, 0.0, 0.0, 0.001)"
1604566974680180279, 41403, 1604566974, 678806066, base_link, 0.0120848687968, -0.00768487954047, -0.000507531318253, 0.99989731522, "(0.0013182493482314511, 0.0, 0.0, 0.0, 0.0011581203700148368, 0.0, 0.0, 0.0, 0.0048818380817255425)", 0.0192568824977, -0.0233383973571, 0.191409752431, "(0.001, 0.0, 0.0, 0.0, 0.001, 0.0, 0.0, 0.0, 0.001)", 0.122278825864, -0.109421948524, -0.325649552927, "(0.001, 0.0, 0.0, 0.0, 0.001, 0.0, 0.0, 0.0, 0.001)"
1604566974700629174, 41404, 1604566974, 700524091, base_link, -0.0123554816113, 0.00801006667624, -0.00191962703011, -0.999889741891, "(0.0013182493482314511, 0.0, 0.0, 0.0, 0.0011581203700148368, 0.0, 0.0, 0.0, 0.0048818380817255425)", 0.0336138413737, -0.0341624285644, 0.290717005907, "(0.001, 0.0, 0.0, 0.0, 0.001, 0.0, 0.0, 0.0, 0.001)", -0.558383762951, -0.450015068929, -0.190399465547, "(0.001, 0.0, 0.0, 0.0, 0.001, 0.0, 0.0, 0.0, 0.001)"
1604566974720449788, 41405, 1604566974, 720351934, base_link, -0.0124845571575, 0.00815776940195, -0.0031485749694, -0.999883829806, "(0.0013182493482314511, 0.0, 0.0, 0.0, 0.0011581203700148368, 0.0, 0.0, 0.0, 0.0048818380817255425)", 0.0229597462219, -0.0224945126987, 0.1956563073, "(0.001, 0.0, 0.0, 0.0, 0.001, 0.0, 0.0, 0.0, 0.001)", -0.256919978265, -0.116969867811, -0.185859095961, "(0.001, 0.0, 0.0, 0.0, 0.001, 0.0, 0.0, 0.0, 0.001)"
1604566974739873673, 41406, 1604566974, 739742994, base_link, -0.0125897341724, 0.00832905416976, -0.00436550151878, -0.9998765263, "(0.0013182493482314511, 0.0, 0.0, 0.0, 0.0011581203700148368, 0.0, 0.0, 0.0, 0.0048818380817255425)", 0.0312956328515, -0.0365536745331, 0.292400924084, "(0.001, 0.0, 0.0, 0.0, 0.001, 0.0, 0.0, 0.0, 0.001)", -0.157936116827, 0.342331808607, 0.0525141749362, "(0.001, 0.0, 0.0, 0.0, 0.001, 0.0, 0.0, 0.0, 0.001)"
1604566974760298571, 41407, 1604566974, 760147094, base_link, -0.0127073293599, 0.0084350798305, -0.00560131246519, -0.99986799054, "(0.0013182493482314511, 0.0, 0.0, 0.0, 0.0011581203700148368, 0.0, 0.0, 0.0, 0.0048818380817255425)", 0.0200302005897, -0.0177335047372, 0.196232891789, "(0.001, 0.0, 0.0, 0.0, 0.001, 0.0, 0.0, 0.0, 0.001)", -0.0115788696113, 0.269394768122, 0.396229386803, "(0.001, 0.0, 0.0, 0.0, 0.001, 0.0, 0.0, 0.0, 0.001)"
1604566974780216463, 41408, 1604566974, 780083894, base_link, -0.0127883330183, 0.00849919913806, -0.00682814974312, -0.999858789292, "(0.0013182493482314511, 0.0, 0.0, 0.0, 0.0011581203700148368, 0.0, 0.0, 0.0, 0.0048818380817255425)", 0.0254384449621, -0.018983288955, 0.294265431945, "(0.001, 0.0, 0.0, 0.0, 0.001, 0.0, 0.0, 0.0, 0.001)", 0.0371337406327, -0.192878174413, 0.331448709651, "(0.001, 0.0, 0.0, 0.0, 0.001, 0.0, 0.0, 0.0, 0.001)"
1604566974801797317, 41409, 1604566974, 801201105, base_link, -0.0128498132049, 0.00851192072532, -0.00806021830456, -0.999848719751, "(0.0013182493482314511, 0.0, 0.0, 0.0, 0.0011581203700148368, 0.0, 0.0, 0.0, 0.0048818380817255425)", 0.0134674292935, -0.0037691331503, 0.196817099533, "(0.001, 0.0, 0.0, 0.0, 0.001, 0.0, 0.0, 0.0, 0.001)", 0.0641042193435, 0.243286555841, 0.419702685578, "(0.001, 0.0, 0.0, 0.0, 0.001, 0.0, 0.0, 0.0, 0.001)"
1604566974819829060, 41410, 1604566974, 819750070, base_link, -0.0128605274537, 0.00838309912236, -0.00927900995768, -0.999839102284, "(0.0013182493482314511, 0.0, 0.0, 0.0, 0.0011581203700148368, 0.0, 0.0, 0.0, 0.0048818380817255425)", 0.0132115306711, 0.0166028493388, 0.292497327149, "(0.001, 0.0, 0.0, 0.0, 0.001, 0.0, 0.0, 0.0, 0.001)", 0.372054515899, 0.838009995001, 0.41556532093, "(0.001, 0.0, 0.0, 0.0, 0.001, 0.0, 0.0, 0.0, 0.001)"
1604566974840792207, 41411, 1604566974, 840709924, base_link, -0.0128278936619, 0.00823775910347, -0.0104887240783, -0.999828770908, "(0.0013182493482314511, 0.0, 0.0, 0.0, 0.0011581203700148368, 0.0, 0.0, 0.0, 0.0048818380817255425)", 0.000431512795404, 0.0220441035324, 0.194016584368, "(0.001, 0.0, 0.0, 0.0, 0.001, 0.0, 0.0, 0.0, 0.001)", -0.290323842394, 0.565189435558, 0.803431554943, "(0.001, 0.0, 0.0, 0.0, 0.001, 0.0, 0.0, 0.0, 0.001)"
1604566974859635364, 41412, 1604566974, 859530925, base_link, -0.012745875199, 0.00813350254106, -0.0117117935927, -0.999817094619, "(0.0013182493482314511, 0.0, 0.0, 0.0, 0.0011581203700148368, 0.0, 0.0, 0.0, 0.0048818380817255425)", -0.00946455028451, 0.030736271047, 0.290982117753, "(0.001, 0.0, 0.0, 0.0, 0.001, 0.0, 0.0, 0.0, 0.001)", -0.167270331026, 0.47661570359, 0.443894818686, "(0.001, 0.0, 0.0, 0.0, 0.001, 0.0, 0.0, 0.0, 0.001)"
1604566974881124298, 41413, 1604566974, 881016969, base_link, -0.0126552596269, 0.00806631288222, -0.0129253016705, -0.999803838549, "(0.0013182493482314511, 0.0, 0.0, 0.0, 0.0011581203700148368, 0.0, 0.0, 0.0, 0.0048818380817255425)", -0.0110115802602, 0.0170310733916, 0.19432749485, "(0.001, 0.0, 0.0, 0.0, 0.001, 0.0, 0.0, 0.0, 0.001)", -0.533408901343, 0.0173936883655, 0.760384215673, "(0.001, 0.0, 0.0, 0.0, 0.001, 0.0, 0.0, 0.0, 0.001)"
1604566974902026389, 41414, 1604566974, 901932954, base_link, -0.0125418974338, 0.00800710752121, -0.014170435804, -0.999788870606, "(0.0013182493482314511, 0.0, 0.0, 0.0, 0.0011581203700148368, 0.0, 0.0, 0.0, 0.0048818380817255425)", -0.021606116028, 0.0207572056319, 0.294578183482, "(0.001, 0.0, 0.0, 0.0, 0.001, 0.0, 0.0, 0.0, 0.001)", -0.104524573797, 0.351777001255, 0.591816624579, "(0.001, 0.0, 0.0, 0.0, 0.001, 0.0, 0.0, 0.0, 0.001)"
1604566974920905400, 41415, 1604566974, 920814990, base_link, -0.0124067575056, 0.00799875566818, -0.0153972526593, -0.999772482561, "(0.0013941100934253964, 0.0, 0.0, 0.0, 0.0012335771044317406, 0.0, 0.0, 0.0, 0.004979276246866116)", -0.0177635588352, 0.00798993713692, 0.196714401878, "(0.001, 0.0, 0.0, 0.0, 0.001, 0.0, 0.0, 0.0, 0.001)", -0.37146311332, 0.00737318179358, 0.237493653689, "(0.001, 0.0, 0.0, 0.0, 0.001, 0.0, 0.0, 0.0, 0.001)"
1604566974939786811, 41416, 1604566974, 939616918, base_link, -0.01226231424, 0.00788970226338, -0.0166092608139, -0.999755730518, "(0.001158371146474671, 0.0, 0.0, 0.0, 0.0010287503619379468, 0.0, 0.0, 0.0, 0.004747182834642649)", -0.030030218284, 0.0215461885429, 0.292862293157, "(0.001, 0.0, 0.0, 0.0, 0.001, 0.0, 0.0, 0.0, 0.001)", -0.0104060029049, 0.109433643956, 0.298853821447, "(0.001, 0.0, 0.0, 0.0, 0.001, 0.0, 0.0, 0.0, 0.001)"
1604566974960308439, 41417, 1604566974, 960212945, base_link, -0.0121253806784, 0.00775996975062, -0.0178060295006, -0.999737817293, "(0.001158371146474671, 0.0, 0.0, 0.0, 0.0010287503619379468, 0.0, 0.0, 0.0, 0.004747182834642649)", -0.0204298769555, 0.0187565392524, 0.192242794989, "(0.001, 0.0, 0.0, 0.0, 0.001, 0.0, 0.0, 0.0, 0.001)", 0.640732209787, 0.138457802548, -0.00881393086205, "(0.001, 0.0, 0.0, 0.0, 0.001, 0.0, 0.0, 0.0, 0.001)"
1604566974981356318, 41418, 1604566974, 980076074, base_link, -0.0120150836102, 0.00750190920279, -0.0190177241581, -0.99971880311, "(0.001158371146474671, 0.0, 0.0, 0.0, 0.0010287503619379468, 0.0, 0.0, 0.0, 0.004747182834642649)", -0.0257223030906, 0.049687162411, 0.28906467449, "(0.001, 0.0, 0.0, 0.0, 0.001, 0.0, 0.0, 0.0, 0.001)", 0.633897921066, -0.447592288408, 0.0544629882992, "(0.001, 0.0, 0.0, 0.0, 0.001, 0.0, 0.0, 0.0, 0.001)"
1604566975000841588, 41419, 1604566975, 741958, base_link, -0.0119125920769, 0.00720465539119, -0.0202267459012, -0.999698485465, "(0.001158371146474671, 0.0, 0.0, 0.0, 0.0010287503619379468, 0.0, 0.0, 0.0, 0.004747182834642649)", -0.0158297952113, 0.0440192462538, 0.192810815436, "(0.001, 0.0, 0.0, 0.0, 0.001, 0.0, 0.0, 0.0, 0.001)", 0.582971837831, -0.150655173316, -0.415410309317, "(0.001, 0.0, 0.0, 0.0, 0.001, 0.0, 0.0, 0.0, 0.001)"
1604566975019968954, 41420, 1604566975, 19882917, base_link, -0.0118558220977, 0.00683040036849, -0.0214254299402, -0.999676815809, "(0.001158371146474671, 0.0, 0.0, 0.0, 0.0010287503619379468, 0.0, 0.0, 0.0, 0.004747182834642649)", -0.015796064227, 0.0842885274023, 0.287657534295, "(0.001, 0.0, 0.0, 0.0, 0.001, 0.0, 0.0, 0.0, 0.001)", 0.360664533702, -0.559209462519, -0.232581281579, "(0.001, 0.0, 0.0, 0.0, 0.001, 0.0, 0.0, 0.0, 0.001)"
1604566975040475409, 41421, 1604566975, 40374994, base_link, -0.0117914449681, 0.00643848901142, -0.0226864962433, -0.999652354858, "(0.001158371146474671, 0.0, 0.0, 0.0, 0.0010287503619379468, 0.0, 0.0, 0.0, 0.004747182834642649)", -0.00774032866149, 0.0612410950669, 0.196638535147, "(0.001, 0.0, 0.0, 0.0, 0.001, 0.0, 0.0, 0.0, 0.001)", 1.03384907586, -0.41431945774, -0.236304944928, "(0.001, 0.0, 0.0, 0.0, 0.001, 0.0, 0.0, 0.0, 0.001)"
1604566975059577970, 41422, 1604566975, 59490919, base_link, -0.0117740123396, 0.00601762353605, -0.0239723462244, -0.999625173481, "(0.001158371146474671, 0.0, 0.0, 0.0, 0.0010287503619379468, 0.0, 0.0, 0.0, 0.004747182834642649)", -0.00584368280953, 0.0988628604797, 0.303145047227, "(0.001, 0.0, 0.0, 0.0, 0.001, 0.0, 0.0, 0.0, 0.001)", 0.0480665806525, -0.269999601822, 0.176541020561, "(0.001, 0.0, 0.0, 0.0, 0.001, 0.0, 0.0, 0.0, 0.001)"
1604566975080866145, 41423, 1604566975, 80691099, base_link, -0.0117341470964, 0.00556814744109, -0.0252721356608, -0.999596230828, "(0.001158371146474671, 0.0, 0.0, 0.0, 0.0010287503619379468, 0.0, 0.0, 0.0, 0.004747182834642649)", -0.00223698696182, 0.0723158341079, 0.204970050276, "(0.001, 0.0, 0.0, 0.0, 0.001, 0.0, 0.0, 0.0, 0.001)", 0.0310584901124, -0.626160920639, -0.0871053757116, "(0.001, 0.0, 0.0, 0.0, 0.001, 0.0, 0.0, 0.0, 0.001)"
1604566975100335640, 41424, 1604566975, 100150108, base_link, -0.0116832525583, 0.00521668225083, -0.0266011136815, -0.99956423935, "(0.001158371146474671, 0.0, 0.0, 0.0, 0.0010287503619379468, 0.0, 0.0, 0.0, 0.004747182834642649)", -0.00646363613133, 0.0983500527034, 0.313075793175, "(0.001, 0.0, 0.0, 0.0, 0.001, 0.0, 0.0, 0.0, 0.001)", -0.284508026682, 0.280726456959, 0.547094415965, "(0.001, 0.0, 0.0, 0.0, 0.001, 0.0, 0.0, 0.0, 0.001)"
1604566975120291444, 41425, 1604566975, 120189905, base_link, -0.0116270599031, 0.0048792438132, -0.0279811945101, -0.999528917647, "(0.001158371146474671, 0.0, 0.0, 0.0, 0.0010287503619379468, 0.0, 0.0, 0.0, 0.004747182834642649)", -0.00558937388918, 0.0594838606561, 0.21621265977, "(0.001, 0.0, 0.0, 0.0, 0.001, 0.0, 0.0, 0.0, 0.001)", -0.636151054694, 0.000419128989273, 0.263687516981, "(0.001, 0.0, 0.0, 0.0, 0.001, 0.0, 0.0, 0.0, 0.001)"
1604566975139951561, 41426, 1604566975, 139827966, base_link, -0.0115638518347, 0.00467489656219, -0.029378793976, -0.999490524786, "(0.001158371146474671, 0.0, 0.0, 0.0, 0.0010287503619379468, 0.0, 0.0, 0.0, 0.004747182834642649)", -0.0109135648949, 0.0695483960514, 0.330486981719, "(0.001, 0.0, 0.0, 0.0, 0.001, 0.0, 0.0, 0.0, 0.001)", -1.6051440642, -0.656684911826, -0.217063762112, "(0.001, 0.0, 0.0, 0.0, 0.001, 0.0, 0.0, 0.0, 0.001)"
1604566975160555488, 41427, 1604566975, 160440921, base_link, -0.0115143144145, 0.00444127453536, -0.030774342683, -0.99945016658, "(0.001158371146474671, 0.0, 0.0, 0.0, 0.0010287503619379468, 0.0, 0.0, 0.0, 0.004747182834642649)", -0.00546942349387, 0.040898978609, 0.222350221888, "(0.001, 0.0, 0.0, 0.0, 0.001, 0.0, 0.0, 0.0, 0.001)", -0.87042153676, 0.466183328635, 0.328838985916, "(0.001, 0.0, 0.0, 0.0, 0.001, 0.0, 0.0, 0.0, 0.001)"
1604566975179880068, 41428, 1604566975, 179713010, base_link, -0.0114252897423, 0.00420276510056, -0.0321954878927, -0.999407449482, "(0.001158371146474671, 0.0, 0.0, 0.0, 0.0010287503619379468, 0.0, 0.0, 0.0, 0.004747182834642649)", -0.0136273294974, 0.0601347106269, 0.33707079948, "(0.001, 0.0, 0.0, 0.0, 0.001, 0.0, 0.0, 0.0, 0.001)", -0.981420734759, 0.183189684047, -0.0801389536618, "(0.001, 0.0, 0.0, 0.0, 0.001, 0.0, 0.0, 0.0, 0.001)"
1604566975201319386, 41429, 1604566975, 201180934, base_link, -0.0113083460756, 0.00398544235233, -0.0335852846697, -0.999363930814, "(0.001158371146474671, 0.0, 0.0, 0.0, 0.0010287503619379468, 0.0, 0.0, 0.0, 0.004747182834642649)", -0.014018353099, 0.0403561864261, 0.223803259598, "(0.001, 0.0, 0.0, 0.0, 0.001, 0.0, 0.0, 0.0, 0.001)", -1.43483803231, -0.0003490692521, 0.123000051688, "(0.001, 0.0, 0.0, 0.0, 0.001, 0.0, 0.0, 0.0, 0.001)"
1604566975219794996, 41430, 1604566975, 219603061, base_link, -0.0112118478563, 0.00380130664113, -0.0349349686195, -0.999319464687, "(0.001158371146474671, 0.0, 0.0, 0.0, 0.0010287503619379468, 0.0, 0.0, 0.0, 0.004747182834642649)", -0.0214034515908, 0.0535714297962, 0.328272331217, "(0.001, 0.0, 0.0, 0.0, 0.001, 0.0, 0.0, 0.0, 0.001)", -1.83065681666, 0.0792278100622, -0.20687729507, "(0.001, 0.0, 0.0, 0.0, 0.001, 0.0, 0.0, 0.0, 0.001)"
1604566975240304212, 41431, 1604566975, 240185022, base_link, -0.0111053311375, 0.00370202374596, -0.0362613947434, -0.999273775245, "(0.001158371146474671, 0.0, 0.0, 0.0, 0.0010287503619379468, 0.0, 0.0, 0.0, 0.004747182834642649)", -0.015000997089, 0.0249091471123, 0.214718287774, "(0.001, 0.0, 0.0, 0.0, 0.001, 0.0, 0.0, 0.0, 0.001)", -2.01000825215, -0.254096766919, -0.10201252775, "(0.001, 0.0, 0.0, 0.0, 0.001, 0.0, 0.0, 0.0, 0.001)"
1604566975259767625, 41432, 1604566975, 259633064, base_link, -0.0110601882353, 0.00369972126123, -0.037570681853, -0.999225914478, "(0.001158371146474671, 0.0, 0.0, 0.0, 0.0010287503619379468, 0.0, 0.0, 0.0, 0.004747182834642649)", -0.0163809638357, 0.0188096940079, 0.317333488934, "(0.001, 0.0, 0.0, 0.0, 0.001, 0.0, 0.0, 0.0, 0.001)", -2.63920021416, 0.150473457612, -0.901391670631, "(0.001, 0.0, 0.0, 0.0, 0.001, 0.0, 0.0, 0.0, 0.001)"
1604566975280292505, 41433, 1604566975, 280040979, base_link, -0.0110345287016, 0.00376994400797, -0.0388538367966, -0.999176864256, "(0.001158371146474671, 0.0, 0.0, 0.0, 0.0010287503619379468, 0.0, 0.0, 0.0, 0.004747182834642649)", -0.00526249105322, -0.00112215437339, 0.207327288516, "(0.001, 0.0, 0.0, 0.0, 0.001, 0.0, 0.0, 0.0, 0.001)", -1.55174878961, -0.169280715047, -0.249028581076, "(0.001, 0.0, 0.0, 0.0, 0.001, 0.0, 0.0, 0.0, 0.001)"
1604566975300556530, 41434, 1604566975, 300436019, base_link, -0.0110366368848, 0.00390631108523, -0.0401457166601, -0.999125244809, "(0.001158371146474671, 0.0, 0.0, 0.0, 0.0010287503619379468, 0.0, 0.0, 0.0, 0.004747182834642649)", -0.00365576484382, -0.0188076982595, 0.31044656422, "(0.001, 0.0, 0.0, 0.0, 0.001, 0.0, 0.0, 0.0, 0.001)", -1.95536981345, -0.49374056942, -0.807553504011, "(0.001, 0.0, 0.0, 0.0, 0.001, 0.0, 0.0, 0.0, 0.001)"
1604566975320589698, 41435, 1604566975, 320491075, base_link, -0.0110699996378, 0.00407654698786, -0.0414350079542, -0.999071557492, "(0.001158371146474671, 0.0, 0.0, 0.0, 0.0010287503619379468, 0.0, 0.0, 0.0, 0.004747182834642649)", 0.0025234751812, -0.0212106905381, 0.206394630208, "(0.001, 0.0, 0.0, 0.0, 0.001, 0.0, 0.0, 0.0, 0.001)", -0.685980097009, -0.243894871309, -0.560563812241, "(0.001, 0.0, 0.0, 0.0, 0.001, 0.0, 0.0, 0.0, 0.001)"
1604566975339718174, 41436, 1604566975, 339617967, base_link, -0.0111254032756, 0.00419685314066, -0.0427357270885, -0.999015650256, "(0.001158371146474671, 0.0, 0.0, 0.0, 0.0010287503619379468, 0.0, 0.0, 0.0, 0.004747182834642649)", 0.00986242080174, -0.0293530800481, 0.311517575126, "(0.001, 0.0, 0.0, 0.0, 0.001, 0.0, 0.0, 0.0, 0.001)", -1.19230890788, -0.536584565696, -0.40424516679, "(0.001, 0.0, 0.0, 0.0, 0.001, 0.0, 0.0, 0.0, 0.001)"
1604566975360377175, 41437, 1604566975, 360289096, base_link, -0.0111770395787, 0.004300911735, -0.0440434401897, -0.998957832604, "(0.001158371146474671, 0.0, 0.0, 0.0, 0.0010287503619379468, 0.0, 0.0, 0.0, 0.004747182834642649)", 0.00753302013808, -0.0172915104518, 0.208510190492, "(0.001, 0.0, 0.0, 0.0, 0.001, 0.0, 0.0, 0.0, 0.001)", 0.183856551848, 0.111151200165, -0.396257368934, "(0.001, 0.0, 0.0, 0.0, 0.001, 0.0, 0.0, 0.0, 0.001)"
1604566975380340260, 41438, 1604566975, 380225896, base_link, -0.0112331119002, 0.00436620119485, -0.0453793315183, -0.998897126713, "(0.001158371146474671, 0.0, 0.0, 0.0, 0.0010287503619379468, 0.0, 0.0, 0.0, 0.004747182834642649)", 0.0142149053087, -0.0172845450353, 0.317180548169, "(0.001, 0.0, 0.0, 0.0, 0.001, 0.0, 0.0, 0.0, 0.001)", -0.131376843873, 0.106201719052, 0.226804235156, "(0.001, 0.0, 0.0, 0.0, 0.001, 0.0, 0.0, 0.0, 0.001)"
1604566975400391851, 41439, 1604566975, 400305986, base_link, -0.0112624190323, 0.00436327028638, -0.0467393396608, -0.998834097294, "(0.001158371146474671, 0.0, 0.0, 0.0, 0.0010287503619379468, 0.0, 0.0, 0.0, 0.004747182834642649)", 0.00710336789333, -0.00358603832309, 0.215440723239, "(0.001, 0.0, 0.0, 0.0, 0.001, 0.0, 0.0, 0.0, 0.001)", 0.502562742088, -0.0770351847684, -0.0995760779309, "(0.001, 0.0, 0.0, 0.0, 0.001, 0.0, 0.0, 0.0, 0.001)"
1604566975420375612, 41440, 1604566975, 420275926, base_link, -0.0112607208674, 0.00434282962611, -0.0481311394595, -0.998768105924, "(0.001158371146474671, 0.0, 0.0, 0.0, 0.0010287503619379468, 0.0, 0.0, 0.0, 0.004747182834642649)", 0.00544409772414, 0.00350530321849, 0.32928784479, "(0.001, 0.0, 0.0, 0.0, 0.001, 0.0, 0.0, 0.0, 0.001)", 0.4802664726, 0.273228757399, 0.541157153289, "(0.001, 0.0, 0.0, 0.0, 0.001, 0.0, 0.0, 0.0, 0.001)"
1604566975440606964, 41441, 1604566975, 440498113, base_link, -0.0112116953769, 0.00430675954742, -0.0495807950931, -0.998697899501, "(0.001158371146474671, 0.0, 0.0, 0.0, 0.0010287503619379468, 0.0, 0.0, 0.0, 0.004747182834642649)", -0.00276636177802, 0.00703608518696, 0.227428159728, "(0.001, 0.0, 0.0, 0.0, 0.001, 0.0, 0.0, 0.0, 0.001)", 0.725259165547, 0.0234570990116, 0.32079912127, "(0.001, 0.0, 0.0, 0.0, 0.001, 0.0, 0.0, 0.0, 0.001)"
1604566975459683262, 41442, 1604566975, 459597110, base_link, -0.0111415166243, 0.0043442464748, -0.0510540885543, -0.998624290798, "(0.001158371146474671, 0.0, 0.0, 0.0, 0.0010287503619379468, 0.0, 0.0, 0.0, 0.004747182834642649)", -0.0113934870991, 0.0036994335669, 0.348200656582, "(0.001, 0.0, 0.0, 0.0, 0.001, 0.0, 0.0, 0.0, 0.001)", 0.111458812188, 0.343444454508, 0.392794750324, "(0.001, 0.0, 0.0, 0.0, 0.001, 0.0, 0.0, 0.0, 0.001)"
1604566975480128320, 41443, 1604566975, 480022907, base_link, -0.0110986239721, 0.00432365821642, -0.0525461609195, -0.998547458811, "(0.001158371146474671, 0.0, 0.0, 0.0, 0.0010287503619379468, 0.0, 0.0, 0.0, 0.004747182834642649)", -0.00616980381825, 0.00266542525842, 0.237456493653, "(0.001, 0.0, 0.0, 0.0, 0.001, 0.0, 0.0, 0.0, 0.001)", -0.0391642890989, -0.118148494185, 0.0963436959924, "(0.001, 0.0, 0.0, 0.0, 0.001, 0.0, 0.0, 0.0, 0.001)"
1604566975500326839, 41444, 1604566975, 500226974, base_link, -0.0110546707913, 0.0042978077904, -0.0540041857951, -0.998470265465, "(0.001158371146474671, 0.0, 0.0, 0.0, 0.0010287503619379468, 0.0, 0.0, 0.0, 0.004747182834642649)", -0.00877567383756, 0.00796507769716, 0.35294755044, "(0.001, 0.0, 0.0, 0.0, 0.001, 0.0, 0.0, 0.0, 0.001)", 0.560347255879, -0.330582034914, 0.0724891336884, "(0.001, 0.0, 0.0, 0.0, 0.001, 0.0, 0.0, 0.0, 0.001)"
1604566975520638331, 41445, 1604566975, 520543098, base_link, -0.0110045109009, 0.00416708809077, -0.0554399321939, -0.998392683284, "(0.001158371146474671, 0.0, 0.0, 0.0, 0.0010287503619379468, 0.0, 0.0, 0.0, 0.004747182834642649)", -0.00565476051752, 0.0172896853901, 0.232174858611, "(0.001, 0.0, 0.0, 0.0, 0.001, 0.0, 0.0, 0.0, 0.001)", 0.0979973515965, 0.26021840363, 0.328994147048, "(0.001, 0.0, 0.0, 0.0, 0.001, 0.0, 0.0, 0.0, 0.001)"
1604566975539677999, 41446, 1604566975, 539535045, base_link, -0.0109604369571, 0.00396184976412, -0.0568253233574, -0.998316109854, "(0.001158371146474671, 0.0, 0.0, 0.0, 0.0010287503619379468, 0.0, 0.0, 0.0, 0.004747182834642649)", -0.00810314394395, 0.0391071166405, 0.339108286004, "(0.001, 0.0, 0.0, 0.0, 0.001, 0.0, 0.0, 0.0, 0.001)", 0.355424841541, 0.277479175593, -0.160340096938, "(0.001, 0.0, 0.0, 0.0, 0.001, 0.0, 0.0, 0.0, 0.001)"
