time, .header.seq, .header.stamp.secs, .header.stamp.nsecs, .header.frame_id, .orientation.x, .orientation.y, .orientation.z, .orientation.w, .orientation_covariance, .angular_velocity.x, .angular_velocity.y, .angular_velocity.z, .angular_velocity_covariance, .linear_acceleration.x, .linear_acceleration.y, .linear_acceleration.z, .linear_acceleration_covariance
1636524445180545215, 612, 1636512749, 862632036, base_link, 0.00386493337019, -0.0148386671737, -0.686967849955, 0.726526014245, "(0.001119229751509479, 0.0, 0.0, 0.0, 0.0011134208643506227, 0.0, 0.0, 0.0, 0.020332116676159195)", 0.00175739475266, -0.000207927700937, 9.42661952682e-05, "(0.001, 0.0, 0.0, 0.0, 0.001, 0.0, 0.0, 0.0, 0.001)", 0.32779079846, 0.0360853781703, 0.471847966947, "(0.001, 0.0, 0.0, 0.0, 0.001, 0.0, 0.0, 0.0, 0.001)"
1636524445195691005, 613, 1636512749, 881454944, base_link, 0.00385589832747, -0.0148335087899, -0.686970717548, 0.726523456123, "(0.001119229751509479, 0.0, 0.0, 0.0, 0.0011134208643506227, 0.0, 0.0, 0.0, 0.020332116676159195)", -0.00111837362693, 0.000672113147452, -0.000232163093755, "(0.001, 0.0, 0.0, 0.0, 0.001, 0.0, 0.0, 0.0, 0.001)", -0.376320607573, -0.0249349715181, -0.430613766665, "(0.001, 0.0, 0.0, 0.0, 0.001, 0.0, 0.0, 0.0, 0.001)"
1636524445216421088, 614, 1636512749, 901985883, base_link, 0.00386756574845, -0.0148557470693, -0.686970537078, 0.726523110369, "(0.001119229751509479, 0.0, 0.0, 0.0, 0.0011134208643506227, 0.0, 0.0, 0.0, 0.020332116676159195)", 0.00199180492095, -0.00155440826088, -0.000280198916165, "(0.001, 0.0, 0.0, 0.0, 0.001, 0.0, 0.0, 0.0, 0.001)", 0.416508945296, 0.0516006563472, 0.239437078951, "(0.001, 0.0, 0.0, 0.0, 0.001, 0.0, 0.0, 0.0, 0.001)"
1636524445237054467, 615, 1636512749, 922658920, base_link, 0.00384832484619, -0.0148401454474, -0.686969839761, 0.726524190745, "(0.001119229751509479, 0.0, 0.0, 0.0, 0.0011134208643506227, 0.0, 0.0, 0.0, 0.020332116676159195)", -0.00161073820634, 5.26935245413e-05, 0.00030547207363, "(0.001, 0.0, 0.0, 0.0, 0.001, 0.0, 0.0, 0.0, 0.001)", -0.553338022349, -0.0162151504711, -0.226511100114, "(0.001, 0.0, 0.0, 0.0, 0.001, 0.0, 0.0, 0.0, 0.001)"
1636524445256191993, 616, 1636512749, 941896915, base_link, 0.00386610490474, -0.0148603871152, -0.686971117085, 0.72652247482, "(0.001119229751509479, 0.0, 0.0, 0.0, 0.0011134208643506227, 0.0, 0.0, 0.0, 0.020332116676159195)", 0.00196529100207, -0.00180399047666, -0.000148175355604, "(0.001, 0.0, 0.0, 0.0, 0.001, 0.0, 0.0, 0.0, 0.001)", 0.505887994867, 0.0984698442606, 0.257276220124, "(0.001, 0.0, 0.0, 0.0, 0.001, 0.0, 0.0, 0.0, 0.001)"
1636524445276553831, 617, 1636512749, 961373090, base_link, 0.00384918165944, -0.0148437047696, -0.686972638769, 0.726521466863, "(0.001119229751509479, 0.0, 0.0, 0.0, 0.0011134208643506227, 0.0, 0.0, 0.0, 0.020332116676159195)", -0.0019487470858, 0.000944614583782, -0.000301859531435, "(0.001, 0.0, 0.0, 0.0, 0.001, 0.0, 0.0, 0.0, 0.001)", -0.602709715069, -0.12331238953, -0.246646865756, "(0.001, 0.0, 0.0, 0.0, 0.001, 0.0, 0.0, 0.0, 0.001)"
1636524445296838159, 618, 1636512749, 982640981, base_link, 0.00385487688297, -0.0148433728745, -0.68697294525, 0.72652115365, "(0.001119229751509479, 0.0, 0.0, 0.0, 0.0011134208643506227, 0.0, 0.0, 0.0, 0.020332116676159195)", 0.00128871151721, -0.00171599176338, -1.79304975091e-05, "(0.001, 0.0, 0.0, 0.0, 0.001, 0.0, 0.0, 0.0, 0.001)", 0.385043868522, 0.0534804872443, 0.452349163701, "(0.001, 0.0, 0.0, 0.0, 0.001, 0.0, 0.0, 0.0, 0.001)"
1636524445315664717, 619, 1636512750, 1451015, base_link, 0.00384355271907, -0.0148458161926, -0.686974040847, 0.726520127765, "(0.001119229751509479, 0.0, 0.0, 0.0, 0.0011134208643506227, 0.0, 0.0, 0.0, 0.020332116676159195)", -0.00146284038287, -9.12457621784e-05, -1.52403354722e-05, "(0.001, 0.0, 0.0, 0.0, 0.001, 0.0, 0.0, 0.0, 0.001)", -0.426468783166, -0.0798621476428, -0.447459541269, "(0.001, 0.0, 0.0, 0.0, 0.001, 0.0, 0.0, 0.0, 0.001)"
1636524445335755808, 620, 1636512750, 21635055, base_link, 0.00384644060759, -0.0148566467181, -0.686968243472, 0.726525372856, "(0.001119229751509479, 0.0, 0.0, 0.0, 0.0011134208643506227, 0.0, 0.0, 0.0, 0.020332116676159195)", 0.0008735524554, -0.00199915027019, 0.000527971288718, "(0.001, 0.0, 0.0, 0.0, 0.001, 0.0, 0.0, 0.0, 0.001)", 0.473806617497, -0.0143074434595, 0.288581455711, "(0.001, 0.0, 0.0, 0.0, 0.001, 0.0, 0.0, 0.0, 0.001)"
1636524445356703461, 621, 1636512750, 42520046, base_link, 0.00384075090537, -0.0148466818413, -0.68697068376, 0.726523299231, "(0.001119229751509479, 0.0, 0.0, 0.0, 0.0011134208643506227, 0.0, 0.0, 0.0, 0.020332116676159195)", -0.0010153306347, 0.000779763697887, 0.000462578471008, "(0.001, 0.0, 0.0, 0.0, 0.001, 0.0, 0.0, 0.0, 0.001)", -0.432044757492, -0.142800359622, -0.287918578223, "(0.001, 0.0, 0.0, 0.0, 0.001, 0.0, 0.0, 0.0, 0.001)"
1636524445376947223, 622, 1636512750, 62575101, base_link, 0.00385465368789, -0.0148638072584, -0.68696897672, 0.726524489541, "(0.001119229751509479, 0.0, 0.0, 0.0, 0.0011134208643506227, 0.0, 0.0, 0.0, 0.020332116676159195)", 0.00231037156222, -0.00138562253742, 0.000141791544125, "(0.001, 0.0, 0.0, 0.0, 0.001, 0.0, 0.0, 0.0, 0.001)", 0.466389003122, 0.0741429596907, 0.257732172134, "(0.001, 0.0, 0.0, 0.0, 0.001, 0.0, 0.0, 0.0, 0.001)"
1636524445395788682, 623, 1636512750, 81589937, base_link, 0.00384337231609, -0.0148588396509, -0.68697157859, 0.726522190703, "(0.001119229751509479, 0.0, 0.0, 0.0, 0.0011134208643506227, 0.0, 0.0, 0.0, 0.020332116676159195)", -0.000177614551095, -0.000449358027586, 4.14234800212e-06, "(0.001, 0.0, 0.0, 0.0, 0.001, 0.0, 0.0, 0.0, 0.001)", -0.5300874743, -0.0746894066182, -0.26195961041, "(0.001, 0.0, 0.0, 0.0, 0.001, 0.0, 0.0, 0.0, 0.001)"
1636524445416195851, 624, 1636512750, 102081060, base_link, 0.00386579736295, -0.0149037442947, -0.686972265556, 0.726520502377, "(0.001119229751509479, 0.0, 0.0, 0.0, 0.0011134208643506227, 0.0, 0.0, 0.0, 0.020332116676159195)", 0.00442782762832, -0.0027907344303, -0.000348539075373, "(0.001, 0.0, 0.0, 0.0, 0.001, 0.0, 0.0, 0.0, 0.001)", 0.403684266805, 0.142321123321, 0.0232234183715, "(0.001, 0.0, 0.0, 0.0, 0.001, 0.0, 0.0, 0.0, 0.001)"
1636524445435630245, 625, 1636512750, 121504068, base_link, 0.00385670200085, -0.0149849689421, -0.686996160674, 0.726496284763, "(0.001119229751509479, 0.0, 0.0, 0.0, 0.0011134208643506227, 0.0, 0.0, 0.0, 0.020332116676159195)", 0.00938541233438, -0.00877445209114, -0.00395420058095, "(0.001, 0.0, 0.0, 0.0, 0.001, 0.0, 0.0, 0.0, 0.001)", -0.831226441764, 0.601911865739, -0.65305061919, "(0.001, 0.0, 0.0, 0.0, 0.001, 0.0, 0.0, 0.0, 0.001)"
1636524445460092712, 626, 1636512750, 145865917, base_link, 0.00387283904394, -0.01507154782, -0.687021047438, 0.726470873429, "(0.001119229751509479, 0.0, 0.0, 0.0, 0.0011134208643506227, 0.0, 0.0, 0.0, 0.020332116676159195)", 0.0102425969012, -0.00952031334036, -0.00492592483934, "(0.001, 0.0, 0.0, 0.0, 0.001, 0.0, 0.0, 0.0, 0.001)", 0.343603653379, 0.357934611516, 0.00552346054001, "(0.001, 0.0, 0.0, 0.0, 0.001, 0.0, 0.0, 0.0, 0.001)"
1636524445475442437, 627, 1636512750, 161334037, base_link, 0.00388135190196, -0.0151751946409, -0.68706745681, 0.726424778189, "(0.001119229751509479, 0.0, 0.0, 0.0, 0.0011134208643506227, 0.0, 0.0, 0.0, 0.020332116676159195)", 0.0165971296885, -0.0140911881321, -0.0115180875765, "(0.001, 0.0, 0.0, 0.0, 0.001, 0.0, 0.0, 0.0, 0.001)", -0.515994982134, 0.71996589784, -0.583113780333, "(0.001, 0.0, 0.0, 0.0, 0.001, 0.0, 0.0, 0.0, 0.001)"
1636524445495996253, 628, 1636512750, 181813955, base_link, 0.00391578842352, -0.0152839847885, -0.687115389649, 0.72637697356, "(0.001119229751509479, 0.0, 0.0, 0.0, 0.0011134208643506227, 0.0, 0.0, 0.0, 0.020332116676159195)", 0.0144636589437, -0.0107244748387, -0.00998592645517, "(0.001, 0.0, 0.0, 0.0, 0.001, 0.0, 0.0, 0.0, 0.001)", 0.31117471165, 0.574927289154, 0.0679522676743, "(0.001, 0.0, 0.0, 0.0, 0.001, 0.0, 0.0, 0.0, 0.001)"
1636524445515455860, 629, 1636512750, 201363086, base_link, 0.00396097864862, -0.0153776397075, -0.687175936784, 0.726317472426, "(0.001119229751509479, 0.0, 0.0, 0.0, 0.0011134208643506227, 0.0, 0.0, 0.0, 0.020332116676159195)", 0.0224851299851, -0.0111488261354, -0.018034795403, "(0.001, 0.0, 0.0, 0.0, 0.001, 0.0, 0.0, 0.0, 0.001)", -0.187725407798, 0.83265837876, -0.433446411332, "(0.001, 0.0, 0.0, 0.0, 0.001, 0.0, 0.0, 0.0, 0.001)"
1636524445536181576, 630, 1636512750, 222034931, base_link, 0.0040273564939, -0.0154446576194, -0.687237898694, 0.726257057487, "(0.001119229751509479, 0.0, 0.0, 0.0, 0.0011134208643506227, 0.0, 0.0, 0.0, 0.020332116676159195)", 0.0156230366736, -0.00423628382126, -0.0132792213664, "(0.001, 0.0, 0.0, 0.0, 0.001, 0.0, 0.0, 0.0, 0.001)", 0.345091222134, 0.686856091072, 0.23108178588, "(0.001, 0.0, 0.0, 0.0, 0.001, 0.0, 0.0, 0.0, 0.001)"
1636524445557141955, 631, 1636512750, 243073940, base_link, 0.00407691968893, -0.0155161377943, -0.687295029027, 0.726201192004, "(0.001119229751509479, 0.0, 0.0, 0.0, 0.0011134208643506227, 0.0, 0.0, 0.0, 0.020332116676159195)", 0.0208531114947, -0.00414077047073, -0.0198600613561, "(0.001, 0.0, 0.0, 0.0, 0.001, 0.0, 0.0, 0.0, 0.001)", -0.106921373044, 0.954214014153, -0.281864024997, "(0.001, 0.0, 0.0, 0.0, 0.001, 0.0, 0.0, 0.0, 0.001)"
1636524445576047804, 632, 1636512750, 261936902, base_link, 0.004143875761, -0.0155556618026, -0.687350777891, 0.726147201201, "(0.001119229751509479, 0.0, 0.0, 0.0, 0.0011134208643506227, 0.0, 0.0, 0.0, 0.020332116676159195)", 0.0137951365375, -0.000247899046855, -0.0126372320169, "(0.001, 0.0, 0.0, 0.0, 0.001, 0.0, 0.0, 0.0, 0.001)", 0.400406238297, 0.67016852528, 0.4090082527, "(0.001, 0.0, 0.0, 0.0, 0.001, 0.0, 0.0, 0.0, 0.001)"
1636524445595505524, 633, 1636512750, 281290054, base_link, 0.00416840864931, -0.0156274556203, -0.687398381302, 0.726100456124, "(0.001119229751509479, 0.0, 0.0, 0.0, 0.0011134208643506227, 0.0, 0.0, 0.0, 0.020332116676159195)", 0.0175597011611, -0.00343929370149, -0.017535078567, "(0.001, 0.0, 0.0, 0.0, 0.001, 0.0, 0.0, 0.0, 0.001)", -0.180969710063, 1.12448820296, -0.162046569937, "(0.001, 0.0, 0.0, 0.0, 0.001, 0.0, 0.0, 0.0, 0.001)"
1636524445620138715, 634, 1636512750, 305978059, base_link, 0.00421479351875, -0.0156781164447, -0.687436657311, 0.726062858412, "(0.001119229751509479, 0.0, 0.0, 0.0, 0.0011134208643506227, 0.0, 0.0, 0.0, 0.020332116676159195)", 0.0114608891885, -0.00277418045562, -0.00962354416211, "(0.001, 0.0, 0.0, 0.0, 0.001, 0.0, 0.0, 0.0, 0.001)", 0.285314082418, 0.725979776362, 0.456416161518, "(0.001, 0.0, 0.0, 0.0, 0.001, 0.0, 0.0, 0.0, 0.001)"
1636524445637337400, 635, 1636512750, 323100090, base_link, 0.00420215979996, -0.0157323747411, -0.687475648992, 0.726024838612, "(0.0012009665133155961, 0.0, 0.0, 0.0, 0.0011953335383568936, 0.0, 0.0, 0.0, 0.020451009234428108)", 0.01119011333, -0.00714199076904, -0.0134721049591, "(0.001, 0.0, 0.0, 0.0, 0.001, 0.0, 0.0, 0.0, 0.001)", -0.109303250277, 1.09653223556, -0.124271181499, "(0.001, 0.0, 0.0, 0.0, 0.001, 0.0, 0.0, 0.0, 0.001)"
1636524445656320068, 636, 1636512750, 342173099, base_link, 0.00420963777691, -0.0157813661248, -0.687505522209, 0.725995443763, "(0.001032084792536081, 0.0, 0.0, 0.0, 0.0010272549476022519, 0.0, 0.0, 0.0, 0.02041999832727015)", 0.00674530160995, -0.00599174497907, -0.00734386618973, "(0.001, 0.0, 0.0, 0.0, 0.001, 0.0, 0.0, 0.0, 0.001)", 0.0867381434419, 0.699080402565, 0.508605989495, "(0.001, 0.0, 0.0, 0.0, 0.001, 0.0, 0.0, 0.0, 0.001)"
1636524445676093843, 637, 1636512750, 361953973, base_link, 0.00418598725532, -0.015852147327, -0.687551589752, 0.725950410404, "(0.001032084792536081, 0.0, 0.0, 0.0, 0.0010272549476022519, 0.0, 0.0, 0.0, 0.02041999832727015)", 0.00811158237799, -0.012760237745, -0.0130858221129, "(0.001, 0.0, 0.0, 0.0, 0.001, 0.0, 0.0, 0.0, 0.001)", -0.0732696330149, 1.17581521284, -0.0549126550442, "(0.001, 0.0, 0.0, 0.0, 0.001, 0.0, 0.0, 0.0, 0.001)"
1636524445696532443, 638, 1636512750, 382335901, base_link, 0.00418451266421, -0.0158819796594, -0.68760128178, 0.725902700002, "(0.001032084792536081, 0.0, 0.0, 0.0, 0.0010272549476022519, 0.0, 0.0, 0.0, 0.02041999832727015)", 0.00431160322427, -0.00613611175431, -0.0100760163562, "(0.001, 0.0, 0.0, 0.0, 0.001, 0.0, 0.0, 0.0, 0.001)", 0.00533716646439, 0.722134615738, 0.527734257499, "(0.001, 0.0, 0.0, 0.0, 0.001, 0.0, 0.0, 0.0, 0.001)"
1636524445715632867, 639, 1636512750, 401398897, base_link, 0.00414866655085, -0.0159281685288, -0.687661895413, 0.725844473431, "(0.001032084792536081, 0.0, 0.0, 0.0, 0.0010272549476022519, 0.0, 0.0, 0.0, 0.02041999832727015)", 0.00282333354554, -0.0115773606514, -0.0178248103134, "(0.001, 0.0, 0.0, 0.0, 0.001, 0.0, 0.0, 0.0, 0.001)", -0.214202363945, 1.07266535248, -0.0695047116349, "(0.001, 0.0, 0.0, 0.0, 0.001, 0.0, 0.0, 0.0, 0.001)"
1636524445736156661, 640, 1636512750, 421999931, base_link, 0.00413709029406, -0.0159265335387, -0.68773651702, 0.725773871926, "(0.001032084792536081, 0.0, 0.0, 0.0, 0.0010272549476022519, 0.0, 0.0, 0.0, 0.02041999832727015)", 0.000163261277637, -0.00452711777948, -0.0144665543673, "(0.001, 0.0, 0.0, 0.0, 0.001, 0.0, 0.0, 0.0, 0.001)", 0.0645600337373, 0.705048113547, 0.504750539358, "(0.001, 0.0, 0.0, 0.0, 0.001, 0.0, 0.0, 0.0, 0.001)"
1636524445756751471, 641, 1636512750, 442531108, base_link, 0.0041057143347, -0.0159566048524, -0.687824846454, 0.725689679182, "(0.001032084792536081, 0.0, 0.0, 0.0, 0.0010272549476022519, 0.0, 0.0, 0.0, 0.02041999832727015)", -0.000917115257844, -0.00782467310664, -0.0261581812847, "(0.001, 0.0, 0.0, 0.0, 0.001, 0.0, 0.0, 0.0, 0.001)", -0.271952086232, 0.966222540043, -0.219322275094, "(0.001, 0.0, 0.0, 0.0, 0.001, 0.0, 0.0, 0.0, 0.001)"
1636524445776720410, 642, 1636512750, 462383031, base_link, 0.00409759031696, -0.0159669413417, -0.687919813732, 0.725599473823, "(0.001032084792536081, 0.0, 0.0, 0.0, 0.0010272549476022519, 0.0, 0.0, 0.0, 0.02041999832727015)", 0.000215641888891, -0.00464122015024, -0.0195159142253, "(0.001, 0.0, 0.0, 0.0, 0.001, 0.0, 0.0, 0.0, 0.001)", 0.04730893577, 0.679135201978, 0.378549893494, "(0.001, 0.0, 0.0, 0.0, 0.001, 0.0, 0.0, 0.0, 0.001)"
1636524445795488192, 643, 1636512750, 481332063, base_link, 0.00405465835075, -0.0159979539368, -0.688027972743, 0.725496474105, "(0.001032084792536081, 0.0, 0.0, 0.0, 0.0010272549476022519, 0.0, 0.0, 0.0, 0.02041999832727015)", -0.00189005766272, -0.00906604651145, -0.032983797702, "(0.001, 0.0, 0.0, 0.0, 0.001, 0.0, 0.0, 0.0, 0.001)", -0.198201236312, 1.00014001913, -0.270892865312, "(0.001, 0.0, 0.0, 0.0, 0.001, 0.0, 0.0, 0.0, 0.001)"
1636524445819704382, 644, 1636512750, 505548954, base_link, 0.00402035272686, -0.0160106820892, -0.688141566074, 0.725388640567, "(0.001032084792536081, 0.0, 0.0, 0.0, 0.0010272549476022519, 0.0, 0.0, 0.0, 0.02041999832727015)", -0.0014069789901, -0.0067589411652, -0.0238465525413, "(0.001, 0.0, 0.0, 0.0, 0.001, 0.0, 0.0, 0.0, 0.001)", 0.0274039489093, 0.551650869413, 0.299849153642, "(0.001, 0.0, 0.0, 0.0, 0.001, 0.0, 0.0, 0.0, 0.001)"
1636524445835740149, 645, 1636512750, 521560907, base_link, 0.00402035272686, -0.0160106820892, -0.688141566074, 0.725388640567, "(0.001032084792536081, 0.0, 0.0, 0.0, 0.0010272549476022519, 0.0, 0.0, 0.0, 0.02041999832727015)", -0.000739306533753, -0.0103163569482, -0.0378980572376, "(0.001, 0.0, 0.0, 0.0, 0.001, 0.0, 0.0, 0.0, 0.001)", 0.0308224160019, 0.846406155452, -0.347168601974, "(0.001, 0.0, 0.0, 0.0, 0.001, 0.0, 0.0, 0.0, 0.001)"
1636524445856380749, 646, 1636512750, 542140960, base_link, 0.00396318439798, -0.0160532729656, -0.688385782315, 0.725156259232, "(0.001032084792536081, 0.0, 0.0, 0.0, 0.0010272549476022519, 0.0, 0.0, 0.0, 0.02041999832727015)", -0.0019599034575, -0.00596757458011, -0.0265581615099, "(0.001, 0.0, 0.0, 0.0, 0.001, 0.0, 0.0, 0.0, 0.001)", 0.16657637724, 0.56027904284, 0.251010725471, "(0.001, 0.0, 0.0, 0.0, 0.001, 0.0, 0.0, 0.0, 0.001)"
1636524445876335036, 647, 1636512750, 561906099, base_link, 0.00393513698425, -0.0160893953104, -0.688512416209, 0.725035377606, "(0.001032084792536081, 0.0, 0.0, 0.0, 0.0010272549476022519, 0.0, 0.0, 0.0, 0.02041999832727015)", -0.00100607150137, -0.00990757484568, -0.0412606849947, "(0.001, 0.0, 0.0, 0.0, 0.001, 0.0, 0.0, 0.0, 0.001)", 0.0568798655645, 0.838965376344, -0.394827359824, "(0.001, 0.0, 0.0, 0.0, 0.001, 0.0, 0.0, 0.0, 0.001)"
1636524445896372768, 648, 1636512750, 582215070, base_link, 0.0039284388651, -0.0160982384386, -0.688643946528, 0.72491029031, "(0.001032084792536081, 0.0, 0.0, 0.0, 0.0010272549476022519, 0.0, 0.0, 0.0, 0.02041999832727015)", -0.00031318968341, -0.00460155754505, -0.0281559245057, "(0.001, 0.0, 0.0, 0.0, 0.001, 0.0, 0.0, 0.0, 0.001)", 0.305087435236, 0.574645337058, 0.196716376343, "(0.001, 0.0, 0.0, 0.0, 0.001, 0.0, 0.0, 0.0, 0.001)"
1636524445915726242, 649, 1636512750, 601002931, base_link, 0.0039284388651, -0.0160982384386, -0.688643946528, 0.72491029031, "(0.001032084792536081, 0.0, 0.0, 0.0, 0.0010272549476022519, 0.0, 0.0, 0.0, 0.02041999832727015)", 0.000856283173878, -0.00753421051139, -0.0422739855975, "(0.001, 0.0, 0.0, 0.0, 0.001, 0.0, 0.0, 0.0, 0.001)", 0.0245653233442, 0.86551793226, -0.402408999179, "(0.001, 0.0, 0.0, 0.0, 0.001, 0.0, 0.0, 0.0, 0.001)"
1636524445936209551, 650, 1636512750, 622112035, base_link, 0.0039181906446, -0.0161385027943, -0.68890093538, 0.724665231498, "(0.001032084792536081, 0.0, 0.0, 0.0, 0.0010272549476022519, 0.0, 0.0, 0.0, 0.02041999832727015)", 0.00138728066348, -0.00306867219921, -0.0283561056489, "(0.001, 0.0, 0.0, 0.0, 0.001, 0.0, 0.0, 0.0, 0.001)", 0.251176380351, 0.593610339636, 0.16460691749, "(0.001, 0.0, 0.0, 0.0, 0.001, 0.0, 0.0, 0.0, 0.001)"
1636524445955998072, 651, 1636512750, 641891956, base_link, 0.00391604647839, -0.0161582589073, -0.689029590972, 0.724542474955, "(0.001032084792536081, 0.0, 0.0, 0.0, 0.0010272549476022519, 0.0, 0.0, 0.0, 0.02041999832727015)", 0.00185047748002, -0.00345275936332, -0.0428997848033, "(0.001, 0.0, 0.0, 0.0, 0.001, 0.0, 0.0, 0.0, 0.001)", 0.16296197437, 0.900156194526, -0.34080490586, "(0.001, 0.0, 0.0, 0.0, 0.001, 0.0, 0.0, 0.0, 0.001)"
1636524445976648848, 652, 1636512750, 662451982, base_link, 0.00392110896029, -0.0161597952459, -0.689158066078, 0.724420213606, "(0.001032084792536081, 0.0, 0.0, 0.0, 0.0010272549476022519, 0.0, 0.0, 0.0, 0.02041999832727015)", 0.00124256540155, -0.00139512352071, -0.0281827540093, "(0.001, 0.0, 0.0, 0.0, 0.001, 0.0, 0.0, 0.0, 0.001)", 0.0814685895121, 0.608594514905, 0.213929186421, "(0.001, 0.0, 0.0, 0.0, 0.001, 0.0, 0.0, 0.0, 0.001)"
1636524445996253377, 653, 1636512750, 682125091, base_link, 0.00392041461793, -0.0161916954321, -0.689291879347, 0.724292181661, "(0.001032084792536081, 0.0, 0.0, 0.0, 0.0010272549476022519, 0.0, 0.0, 0.0, 0.02041999832727015)", 0.00348694585822, -0.00409715775705, -0.043315325402, "(0.001, 0.0, 0.0, 0.0, 0.001, 0.0, 0.0, 0.0, 0.001)", 0.128400571479, 0.98865754068, -0.253240888409, "(0.001, 0.0, 0.0, 0.0, 0.001, 0.0, 0.0, 0.0, 0.001)"
1636524446015757280, 654, 1636512750, 701637029, base_link, 0.00392885209689, -0.0161953555415, -0.689429484035, 0.724161074018, "(0.001032084792536081, 0.0, 0.0, 0.0, 0.0010272549476022519, 0.0, 0.0, 0.0, 0.02041999832727015)", 0.00178042741732, -0.00156269913994, -0.0298089840224, "(0.001, 0.0, 0.0, 0.0, 0.001, 0.0, 0.0, 0.0, 0.001)", 0.0320800489591, 0.592126872045, 0.24367193652, "(0.001, 0.0, 0.0, 0.0, 0.001, 0.0, 0.0, 0.0, 0.001)"
1636524446035951579, 655, 1636512750, 721684932, base_link, 0.00391196968195, -0.0162254178292, -0.689566000875, 0.724030498492, "(0.001032084792536081, 0.0, 0.0, 0.0, 0.0010272549476022519, 0.0, 0.0, 0.0, 0.02041999832727015)", 0.00217453066889, -0.00541618309848, -0.0451616443036, "(0.001, 0.0, 0.0, 0.0, 0.001, 0.0, 0.0, 0.0, 0.001)", -0.0932188439559, 0.849831536896, -0.182345138054, "(0.001, 0.0, 0.0, 0.0, 0.001, 0.0, 0.0, 0.0, 0.001)"
1636524446060484619, 656, 1636512750, 745441913, base_link, 0.00391688749693, -0.0162220783739, -0.689716052303, 0.723887608239, "(0.001032084792536081, 0.0, 0.0, 0.0, 0.0010272549476022519, 0.0, 0.0, 0.0, 0.02041999832727015)", 0.00123027412815, -0.00219088094478, -0.0475642194305, "(0.001, 0.0, 0.0, 0.0, 0.001, 0.0, 0.0, 0.0, 0.001)", -0.0999649677916, 0.940487903705, 0.268546549235, "(0.001, 0.0, 0.0, 0.0, 0.001, 0.0, 0.0, 0.0, 0.001)"
1636524446075263787, 657, 1636512750, 761132001, base_link, 0.00390450689737, -0.0162594404718, -0.6898667215, 0.723743250047, "(0.001032084792536081, 0.0, 0.0, 0.0, 0.0010272549476022519, 0.0, 0.0, 0.0, 0.02041999832727015)", 0.00149273016353, -0.00478592963216, -0.0330804591153, "(0.001, 0.0, 0.0, 0.0, 0.001, 0.0, 0.0, 0.0, 0.001)", -0.00672479503516, 0.609339552006, -0.190727783978, "(0.001, 0.0, 0.0, 0.0, 0.001, 0.0, 0.0, 0.0, 0.001)"
1636524446096335341, 658, 1636512750, 782216072, base_link, 0.00390785775233, -0.016268276766, -0.690029775926, 0.723587576009, "(0.001032084792536081, 0.0, 0.0, 0.0, 0.0010272549476022519, 0.0, 0.0, 0.0, 0.02041999832727015)", 0.00154308431755, -0.0029249569194, -0.0347253417345, "(0.001, 0.0, 0.0, 0.0, 0.001, 0.0, 0.0, 0.0, 0.001)", -0.0339219709059, 0.569853889949, 0.318935486438, "(0.001, 0.0, 0.0, 0.0, 0.001, 0.0, 0.0, 0.0, 0.001)"
1636524446117464054, 659, 1636512750, 803241014, base_link, 0.00388693926767, -0.0162911672646, -0.69020112037, 0.723423736832, "(0.001032084792536081, 0.0, 0.0, 0.0, 0.0010272549476022519, 0.0, 0.0, 0.0, 0.02041999832727015)", 0.000651363105079, -0.00647618396361, -0.0547413384203, "(0.001, 0.0, 0.0, 0.0, 0.001, 0.0, 0.0, 0.0, 0.001)", -0.103191704846, 0.950799806039, -0.19917426109, "(0.001, 0.0, 0.0, 0.0, 0.001, 0.0, 0.0, 0.0, 0.001)"
1636524446135849934, 660, 1636512750, 821758985, base_link, 0.00388158673494, -0.0163017711283, -0.690379013821, 0.723253761012, "(0.001032084792536081, 0.0, 0.0, 0.0, 0.0010272549476022519, 0.0, 0.0, 0.0, 0.02041999832727015)", 0.000351123757207, -0.00321228002583, -0.038353417703, "(0.001, 0.0, 0.0, 0.0, 0.001, 0.0, 0.0, 0.0, 0.001)", -0.15942847747, 0.492220535289, 0.275881997683, "(0.001, 0.0, 0.0, 0.0, 0.001, 0.0, 0.0, 0.0, 0.001)"
1636524446155579243, 661, 1636512750, 841384887, base_link, 0.00385087144565, -0.0163266966743, -0.690564837252, 0.723075940213, "(0.001032084792536081, 0.0, 0.0, 0.0, 0.0010272549476022519, 0.0, 0.0, 0.0, 0.02041999832727015)", -0.000537110282172, -0.00812920227499, -0.0598235113276, "(0.001, 0.0, 0.0, 0.0, 0.001, 0.0, 0.0, 0.0, 0.001)", 0.0490044300488, 1.01742339682, -0.230778717086, "(0.001, 0.0, 0.0, 0.0, 0.001, 0.0, 0.0, 0.0, 0.001)"
1636524446176361434, 662, 1636512750, 862235069, base_link, 0.00383625650902, -0.0163403291502, -0.690752821495, 0.722896131111, "(0.001032084792536081, 0.0, 0.0, 0.0, 0.0010272549476022519, 0.0, 0.0, 0.0, 0.02041999832727015)", -0.000628094293578, -0.00443745270408, -0.0408448984147, "(0.001, 0.0, 0.0, 0.0, 0.001, 0.0, 0.0, 0.0, 0.001)", -0.237033837124, 0.541777884274, 0.244928752315, "(0.001, 0.0, 0.0, 0.0, 0.001, 0.0, 0.0, 0.0, 0.001)"
1636524446196132253, 663, 1636512750, 881828069, base_link, 0.00381815792256, -0.0163906181111, -0.690952008235, 0.722704705689, "(0.001032084792536081, 0.0, 0.0, 0.0, 0.0010272549476022519, 0.0, 0.0, 0.0, 0.02041999832727015)", 0.00180696508344, -0.0104641182054, -0.0640916537197, "(0.001, 0.0, 0.0, 0.0, 0.001, 0.0, 0.0, 0.0, 0.001)", 0.133471673651, 0.930316378213, -0.29701047142, "(0.001, 0.0, 0.0, 0.0, 0.001, 0.0, 0.0, 0.0, 0.001)"
1636524446216759445, 664, 1636512750, 902565956, base_link, 0.00380156363148, -0.0163937207902, -0.691155356165, 0.722510254375, "(0.001032084792536081, 0.0, 0.0, 0.0, 0.0010272549476022519, 0.0, 0.0, 0.0, 0.02041999832727015)", 0.000116873259643, -0.00461507937871, -0.0439080485021, "(0.001, 0.0, 0.0, 0.0, 0.001, 0.0, 0.0, 0.0, 0.001)", -0.158309430946, 0.600324052245, 0.204672081641, "(0.001, 0.0, 0.0, 0.0, 0.001, 0.0, 0.0, 0.0, 0.001)"
1636524446236786138, 665, 1636512750, 922657966, base_link, 0.00377779364338, -0.0164557140192, -0.691350266283, 0.722322467504, "(0.001032084792536081, 0.0, 0.0, 0.0, 0.0010272549476022519, 0.0, 0.0, 0.0, 0.02041999832727015)", 0.00262241669055, -0.0116117101509, -0.0659186113221, "(0.001, 0.0, 0.0, 0.0, 0.001, 0.0, 0.0, 0.0, 0.001)", 0.236222954229, 0.952278235847, -0.276003934779, "(0.001, 0.0, 0.0, 0.0, 0.001, 0.0, 0.0, 0.0, 0.001)"
1636524446255954672, 666, 1636512750, 941845893, base_link, 0.00376980668033, -0.0164691589923, -0.691556444842, 0.722124808435, "(0.001032084792536081, 0.0, 0.0, 0.0, 0.0010272549476022519, 0.0, 0.0, 0.0, 0.02041999832727015)", 0.00117882937098, -0.00513476043286, -0.0444491034994, "(0.001, 0.0, 0.0, 0.0, 0.001, 0.0, 0.0, 0.0, 0.001)", -0.0613446114977, 0.605180484972, 0.227316008087, "(0.001, 0.0, 0.0, 0.0, 0.001, 0.0, 0.0, 0.0, 0.001)"
1636524446277865487, 667, 1636512750, 963376998, base_link, 0.00376273009652, -0.0165126915917, -0.691751591898, 0.721936914131, "(0.001032084792536081, 0.0, 0.0, 0.0, 0.0010272549476022519, 0.0, 0.0, 0.0, 0.02041999832727015)", 0.00352085901184, -0.00919072517619, -0.0659878811794, "(0.001, 0.0, 0.0, 0.0, 0.001, 0.0, 0.0, 0.0, 0.001)", 0.340974257931, 0.922525952273, -0.227533538215, "(0.001, 0.0, 0.0, 0.0, 0.001, 0.0, 0.0, 0.0, 0.001)"
1636524446297632610, 668, 1636512750, 983500003, base_link, 0.00374734802962, -0.0165420856013, -0.691955319609, 0.721741056371, "(0.001032084792536081, 0.0, 0.0, 0.0, 0.0010272549476022519, 0.0, 0.0, 0.0, 0.02041999832727015)", 0.00173503664622, -0.00558498808914, -0.0445492505569, "(0.001, 0.0, 0.0, 0.0, 0.001, 0.0, 0.0, 0.0, 0.001)", -0.153839993444, 0.656824799028, 0.182475906456, "(0.001, 0.0, 0.0, 0.0, 0.001, 0.0, 0.0, 0.0, 0.001)"
1636524446315363329, 669, 1636512751, 1182079, base_link, 0.00373705281657, -0.0165692046205, -0.692149126741, 0.721554628733, "(0.001032084792536081, 0.0, 0.0, 0.0, 0.0010272549476022519, 0.0, 0.0, 0.0, 0.02041999832727015)", 0.00217634401457, -0.00861410050693, -0.0656343884659, "(0.001, 0.0, 0.0, 0.0, 0.001, 0.0, 0.0, 0.0, 0.001)", 0.400752165394, 0.96952753613, -0.206623226459, "(0.001, 0.0, 0.0, 0.0, 0.001, 0.0, 0.0, 0.0, 0.001)"
1636524446336568311, 670, 1636512751, 22461891, base_link, 0.00371363272938, -0.0165949347287, -0.692349412926, 0.721361980904, "(0.001032084792536081, 0.0, 0.0, 0.0, 0.0010272549476022519, 0.0, 0.0, 0.0, 0.02041999832727015)", 0.000451846919783, -0.00540691255426, -0.0439044476682, "(0.001, 0.0, 0.0, 0.0, 0.001, 0.0, 0.0, 0.0, 0.001)", -0.217069375755, 0.595309232956, 0.173926866241, "(0.001, 0.0, 0.0, 0.0, 0.001, 0.0, 0.0, 0.0, 0.001)"
1636524446356916413, 671, 1636512751, 42715072, base_link, 0.00368920507679, -0.0166460145689, -0.692549261965, 0.721169064586, "(0.001032084792536081, 0.0, 0.0, 0.0, 0.0010272549476022519, 0.0, 0.0, 0.0, 0.02041999832727015)", 0.00195753330444, -0.0123842317, -0.0660280977013, "(0.001, 0.0, 0.0, 0.0, 0.001, 0.0, 0.0, 0.0, 0.001)", 0.27434208132, 1.00396946, -0.146335735984, "(0.001, 0.0, 0.0, 0.0, 0.001, 0.0, 0.0, 0.0, 0.001)"
1636524446376830525, 672, 1636512751, 62695026, base_link, 0.00366384533845, -0.0166592877594, -0.692761345947, 0.720965159998, "(0.001032084792536081, 0.0, 0.0, 0.0, 0.0010272549476022519, 0.0, 0.0, 0.0, 0.02041999832727015)", 0.000157113444871, -0.00602191699023, -0.0458837270783, "(0.001, 0.0, 0.0, 0.0, 0.001, 0.0, 0.0, 0.0, 0.001)", -0.162967972995, 0.685750501996, 0.0842374574472, "(0.001, 0.0, 0.0, 0.0, 0.001, 0.0, 0.0, 0.0, 0.001)"
1636524446395878092, 673, 1636512751, 81733942, base_link, 0.00363210423432, -0.0167121923528, -0.692970820133, 0.720762757702, "(0.001032084792536081, 0.0, 0.0, 0.0, 0.0010272549476022519, 0.0, 0.0, 0.0, 0.02041999832727015)", 0.00109931741397, -0.0129287438546, -0.0692453522358, "(0.001, 0.0, 0.0, 0.0, 0.001, 0.0, 0.0, 0.0, 0.001)", 0.075613629967, 1.00171135976, -0.126991928028, "(0.001, 0.0, 0.0, 0.0, 0.001, 0.0, 0.0, 0.0, 0.001)"
1636524446416467219, 674, 1636512751, 102332115, base_link, 0.00360682541377, -0.0167417953219, -0.693195348742, 0.720546259155, "(0.001032084792536081, 0.0, 0.0, 0.0, 0.0010272549476022519, 0.0, 0.0, 0.0, 0.02041999832727015)", -9.46069636441e-06, -0.00762248554934, -0.048554906351, "(0.001, 0.0, 0.0, 0.0, 0.001, 0.0, 0.0, 0.0, 0.001)", -0.175699573085, 0.620386217138, -0.00430301630639, "(0.001, 0.0, 0.0, 0.0, 0.001, 0.0, 0.0, 0.0, 0.001)"
1636524446435663099, 675, 1636512751, 121469020, base_link, 0.00358256502648, -0.016789741151, -0.693420896821, 0.720328209688, "(0.001032084792536081, 0.0, 0.0, 0.0, 0.0010272549476022519, 0.0, 0.0, 0.0, 0.02041999832727015)", 0.00206329797125, -0.012694403443, -0.0740351163838, "(0.001, 0.0, 0.0, 0.0, 0.001, 0.0, 0.0, 0.0, 0.001)", 0.0291147928458, 0.907284830254, -0.00846495457856, "(0.001, 0.0, 0.0, 0.0, 0.001, 0.0, 0.0, 0.0, 0.001)"
1636524446456434453, 676, 1636512751, 142246961, base_link, 0.00355555012667, -0.0168257653716, -0.693653597308, 0.720103422173, "(0.001032084792536081, 0.0, 0.0, 0.0, 0.0010272549476022519, 0.0, 0.0, 0.0, 0.02041999832727015)", 0.000920308241828, -0.00820814186971, -0.0508603164268, "(0.001, 0.0, 0.0, 0.0, 0.001, 0.0, 0.0, 0.0, 0.001)", -0.190085698911, 0.574563824436, -0.0967074937532, "(0.001, 0.0, 0.0, 0.0, 0.001, 0.0, 0.0, 0.0, 0.001)"
1636524446476860865, 677, 1636512751, 162163019, base_link, 0.00355555012667, -0.0168257653716, -0.693653597308, 0.720103422173, "(0.001032084792536081, 0.0, 0.0, 0.0, 0.0010272549476022519, 0.0, 0.0, 0.0, 0.02041999832727015)", 0.00208332468886, -0.0109334532606, -0.0775220204678, "(0.001, 0.0, 0.0, 0.0, 0.001, 0.0, 0.0, 0.0, 0.001)", 0.265233600779, 0.909022373482, 0.186316410681, "(0.001, 0.0, 0.0, 0.0, 0.001, 0.0, 0.0, 0.0, 0.001)"
1636524446496333261, 678, 1636512751, 182162046, base_link, 0.00351887073783, -0.0168928120627, -0.694137333804, 0.719635749716, "(0.001032084792536081, 0.0, 0.0, 0.0, 0.0010272549476022519, 0.0, 0.0, 0.0, 0.02041999832727015)", 0.000822087484996, -0.00692643759934, -0.0539887399216, "(0.001, 0.0, 0.0, 0.0, 0.001, 0.0, 0.0, 0.0, 0.001)", -0.121977885021, 0.575676757418, -0.128988322066, "(0.001, 0.0, 0.0, 0.0, 0.001, 0.0, 0.0, 0.0, 0.001)"
1636524446515573487, 679, 1636512751, 201443910, base_link, 0.00351694579179, -0.0169315118201, -0.694389712237, 0.719391327818, "(0.001032084792536081, 0.0, 0.0, 0.0, 0.0010272549476022519, 0.0, 0.0, 0.0, 0.02041999832727015)", 0.00382381520509, -0.010365042957, -0.0820372090741, "(0.001, 0.0, 0.0, 0.0, 0.001, 0.0, 0.0, 0.0, 0.001)", 0.217835839407, 0.873761574602, 0.191833645582, "(0.001, 0.0, 0.0, 0.0, 0.001, 0.0, 0.0, 0.0, 0.001)"
1636524446536791801, 680, 1636512751, 222644090, base_link, 0.0034976581683, -0.0169762260083, -0.69464447156, 0.719144375122, "(0.001032084792536081, 0.0, 0.0, 0.0, 0.0010272549476022519, 0.0, 0.0, 0.0, 0.02041999832727015)", 0.00328634825628, -0.0108438396862, -0.0843955288317, "(0.001, 0.0, 0.0, 0.0, 0.001, 0.0, 0.0, 0.0, 0.001)", 0.0961648158127, 0.888116143882, -0.402189807441, "(0.001, 0.0, 0.0, 0.0, 0.001, 0.0, 0.0, 0.0, 0.001)"
1636524446555880225, 681, 1636512751, 241658926, base_link, 0.00349015243188, -0.0170107622488, -0.694911064874, 0.71888598868, "(0.001032084792536081, 0.0, 0.0, 0.0, 0.0010272549476022519, 0.0, 0.0, 0.0, 0.02041999832727015)", 0.00278310462442, -0.00680901031813, -0.058442115784, "(0.001, 0.0, 0.0, 0.0, 0.001, 0.0, 0.0, 0.0, 0.001)", 0.101784893683, 0.59463302998, 0.315063134747, "(0.001, 0.0, 0.0, 0.0, 0.001, 0.0, 0.0, 0.0, 0.001)"
1636524446577018427, 682, 1636512751, 262217998, base_link, 0.00347737783348, -0.0170386816597, -0.695176507078, 0.718628704671, "(0.001032084792536081, 0.0, 0.0, 0.0, 0.0010272549476022519, 0.0, 0.0, 0.0, 0.02041999832727015)", 0.00159782556252, -0.00575689372216, -0.0589078778995, "(0.001, 0.0, 0.0, 0.0, 0.001, 0.0, 0.0, 0.0, 0.001)", 0.137911989238, 0.682920943838, -0.277474741297, "(0.001, 0.0, 0.0, 0.0, 0.001, 0.0, 0.0, 0.0, 0.001)"
1636524446595504829, 683, 1636512751, 281414031, base_link, 0.00347771285328, -0.0170562973468, -0.695453359466, 0.718360364331, "(0.001032084792536081, 0.0, 0.0, 0.0, 0.0010272549476022519, 0.0, 0.0, 0.0, 0.02041999832727015)", 0.00278414109013, -0.00684863214276, -0.0901906590401, "(0.001, 0.0, 0.0, 0.0, 0.001, 0.0, 0.0, 0.0, 0.001)", 0.192623704586, 0.970176334289, 0.248236869199, "(0.001, 0.0, 0.0, 0.0, 0.001, 0.0, 0.0, 0.0, 0.001)"
1636524446619746355, 684, 1636512751, 305533885, base_link, 0.00347184201607, -0.0170649274031, -0.695729126006, 0.718093112202, "(0.001032084792536081, 0.0, 0.0, 0.0, 0.0010272549476022519, 0.0, 0.0, 0.0, 0.02041999832727015)", 2.07484529198e-05, -0.00303777809396, -0.0612913558735, "(0.001, 0.0, 0.0, 0.0, 0.001, 0.0, 0.0, 0.0, 0.001)", 0.204320186583, 0.646631270156, -0.386551454793, "(0.001, 0.0, 0.0, 0.0, 0.001, 0.0, 0.0, 0.0, 0.001)"
1636524446637715475, 685, 1636512751, 323533058, base_link, 0.00349080535197, -0.0170664499977, -0.69601257013, 0.717818258882, "(0.00277597890254834, 0.0, 0.0, 0.0, 0.0027709776777902345, 0.0, 0.0, 0.0, 0.02231099619043797)", 0.00202408223677, -0.00178708655351, -0.0932699173964, "(0.001, 0.0, 0.0, 0.0, 0.001, 0.0, 0.0, 0.0, 0.001)", 0.101270408146, 1.04254990064, 0.189399482941, "(0.001, 0.0, 0.0, 0.0, 0.001, 0.0, 0.0, 0.0, 0.001)"
1636524446656464243, 686, 1636512751, 342328071, base_link, 0.00347911641509, -0.0170741002504, -0.696286027978, 0.717552881739, "(0.002629106139136597, 0.0, 0.0, 0.0, 0.0026234731137799727, 0.0, 0.0, 0.0, 0.013266065263653815)", -0.000651093210898, -0.00196403185906, -0.0627844920248, "(0.001, 0.0, 0.0, 0.0, 0.001, 0.0, 0.0, 0.0, 0.001)", 0.205529053671, 0.681999440466, -0.454667519622, "(0.001, 0.0, 0.0, 0.0, 0.001, 0.0, 0.0, 0.0, 0.001)"
1636524446676316456, 687, 1636512751, 361294984, base_link, 0.00350031540486, -0.0170760507652, -0.696551539652, 0.71729499433, "(0.002629106139136597, 0.0, 0.0, 0.0, 0.0026234731137799727, 0.0, 0.0, 0.0, 0.013266065263653815)", 0.0021605442878, -0.000723561925693, -0.0954024903195, "(0.001, 0.0, 0.0, 0.0, 0.001, 0.0, 0.0, 0.0, 0.001)", -0.0115156653272, 1.11298540997, 0.16229341159, "(0.001, 0.0, 0.0, 0.0, 0.001, 0.0, 0.0, 0.0, 0.001)"
1636524446696755449, 688, 1636512751, 382647991, base_link, 0.00350770218328, -0.0171065012399, -0.696819805126, 0.717033627401, "(0.002629106139136597, 0.0, 0.0, 0.0, 0.0026234731137799727, 0.0, 0.0, 0.0, 0.013266065263653815)", 0.00185570158892, -0.00236983036207, -0.0635811001586, "(0.001, 0.0, 0.0, 0.0, 0.001, 0.0, 0.0, 0.0, 0.001)", 0.156254808836, 0.783875514616, -0.417591665634, "(0.001, 0.0, 0.0, 0.0, 0.001, 0.0, 0.0, 0.0, 0.001)"
1636524446715533834, 689, 1636512751, 401431083, base_link, 0.00350691515331, -0.0171107859036, -0.697090441504, 0.716770422741, "(0.002629106139136597, 0.0, 0.0, 0.0, 0.0026234731137799727, 0.0, 0.0, 0.0, 0.013266065263653815)", 0.00208383812812, -0.00278468145498, -0.0966407372384, "(0.001, 0.0, 0.0, 0.0, 0.001, 0.0, 0.0, 0.0, 0.001)", -0.128529386087, 1.12066408324, 0.317034580142, "(0.001, 0.0, 0.0, 0.0, 0.001, 0.0, 0.0, 0.0, 0.001)"
1636524446735916778, 690, 1636512751, 421763896, base_link, 0.00351471849634, -0.0171239182555, -0.6973668863, 0.7165011124, "(0.002629106139136597, 0.0, 0.0, 0.0, 0.0026234731137799727, 0.0, 0.0, 0.0, 0.013266065263653815)", 0.00127545648108, -0.00244856479722, -0.0649988074283, "(0.001, 0.0, 0.0, 0.0, 0.001, 0.0, 0.0, 0.0, 0.001)", 0.24002089939, 0.826939119666, -0.366086148859, "(0.001, 0.0, 0.0, 0.0, 0.001, 0.0, 0.0, 0.0, 0.001)"
1636524446757045027, 691, 1636512751, 442893981, base_link, 0.00350439123124, -0.0171342388985, -0.697644958544, 0.716230164763, "(0.002629106139136597, 0.0, 0.0, 0.0, 0.0026234731137799727, 0.0, 0.0, 0.0, 0.013266065263653815)", 0.000764785990584, -0.00382374933498, -0.0992622184682, "(0.001, 0.0, 0.0, 0.0, 0.001, 0.0, 0.0, 0.0, 0.001)", -0.270546734971, 1.14886470459, 0.223065972692, "(0.001, 0.0, 0.0, 0.0, 0.001, 0.0, 0.0, 0.0, 0.001)"
1636524446776691527, 692, 1636512751, 462272882, base_link, 0.00351056771671, -0.0171500224666, -0.69792704634, 0.715954880304, "(0.002629106139136597, 0.0, 0.0, 0.0, 0.0026234731137799727, 0.0, 0.0, 0.0, 0.013266065263653815)", 0.00088378517788, -0.00283535517054, -0.0663411913314, "(0.001, 0.0, 0.0, 0.0, 0.001, 0.0, 0.0, 0.0, 0.001)", 0.296682027672, 0.89870911234, -0.287669301677, "(0.001, 0.0, 0.0, 0.0, 0.001, 0.0, 0.0, 0.0, 0.001)"
1636524446795688185, 693, 1636512751, 481409072, base_link, 0.00350031578705, -0.0171459432772, -0.698216349127, 0.715672896112, "(0.002629106139136597, 0.0, 0.0, 0.0, 0.0026234731137799727, 0.0, 0.0, 0.0, 0.013266065263653815)", -0.000341080467734, -0.00274099307115, -0.102332063947, "(0.001, 0.0, 0.0, 0.0, 0.001, 0.0, 0.0, 0.0, 0.001)", -0.357613529913, 1.27908491153, 0.130673272905, "(0.001, 0.0, 0.0, 0.0, 0.001, 0.0, 0.0, 0.0, 0.001)"
1636524446816843646, 694, 1636512751, 502208948, base_link, 0.00350679072653, -0.0171733660415, -0.698510805935, 0.715384813866, "(0.002629106139136597, 0.0, 0.0, 0.0, 0.0026234731137799727, 0.0, 0.0, 0.0, 0.013266065263653815)", 0.00101346663653, -0.00354815057788, -0.0688555772302, "(0.001, 0.0, 0.0, 0.0, 0.001, 0.0, 0.0, 0.0, 0.001)", 0.259327584118, 0.796429049476, -0.229755342829, "(0.001, 0.0, 0.0, 0.0, 0.001, 0.0, 0.0, 0.0, 0.001)"
1636524446835503810, 695, 1636512751, 521296977, base_link, 0.00348501596084, -0.0171711508452, -0.698806296949, 0.715096333081, "(0.002629106139136597, 0.0, 0.0, 0.0, 0.0026234731137799727, 0.0, 0.0, 0.0, 0.013266065263653815)", -0.0011705620314, -0.00451802064717, -0.105448274862, "(0.001, 0.0, 0.0, 0.0, 0.001, 0.0, 0.0, 0.0, 0.001)", -0.240141048727, 1.34105048564, 0.0175668589346, "(0.001, 0.0, 0.0, 0.0, 0.001, 0.0, 0.0, 0.0, 0.001)"
1636524446857974304, 696, 1636512751, 543802022, base_link, 0.0034642851925, -0.0172048231598, -0.69910251467, 0.714806034369, "(0.002629106139136597, 0.0, 0.0, 0.0, 0.0026234731137799727, 0.0, 0.0, 0.0, 0.013266065263653815)", -0.000400742720799, -0.00603043688584, -0.0698460038739, "(0.001, 0.0, 0.0, 0.0, 0.001, 0.0, 0.0, 0.0, 0.001)", 0.111840174868, 0.900785833479, -0.0584302826775, "(0.001, 0.0, 0.0, 0.0, 0.001, 0.0, 0.0, 0.0, 0.001)"
1636524446876312759, 697, 1636512751, 561511993, base_link, 0.00341691475981, -0.0172209436402, -0.699407833876, 0.714507134819, "(0.002629106139136597, 0.0, 0.0, 0.0, 0.0026234731137799727, 0.0, 0.0, 0.0, 0.013266065263653815)", -0.00387683271215, -0.010698103128, -0.107626398305, "(0.001, 0.0, 0.0, 0.0, 0.001, 0.0, 0.0, 0.0, 0.001)", -0.150943631332, 1.32347704097, -0.0582335985739, "(0.001, 0.0, 0.0, 0.0, 0.001, 0.0, 0.0, 0.0, 0.001)"
1636524446896823531, 698, 1636512751, 582674026, base_link, 0.00338205075813, -0.0172415704145, -0.699715880538, 0.714205136151, "(0.002629106139136597, 0.0, 0.0, 0.0, 0.0026234731137799727, 0.0, 0.0, 0.0, 0.013266065263653815)", -0.00223126436515, -0.00794245480428, -0.0719272133235, "(0.001, 0.0, 0.0, 0.0, 0.001, 0.0, 0.0, 0.0, 0.001)", 0.0828304070011, 0.889990059294, 0.0302547345579, "(0.001, 0.0, 0.0, 0.0, 0.001, 0.0, 0.0, 0.0, 0.001)"
1636524446915070589, 699, 1636512751, 600867986, base_link, 0.00333252388068, -0.0172562111896, -0.700026325731, 0.713900735918, "(0.002629106139136597, 0.0, 0.0, 0.0, 0.0026234731137799727, 0.0, 0.0, 0.0, 0.013266065263653815)", -0.00586011424101, -0.0120062613039, -0.110235000392, "(0.001, 0.0, 0.0, 0.0, 0.001, 0.0, 0.0, 0.0, 0.001)", 0.0424239798015, 1.35694128333, -0.239045265517, "(0.001, 0.0, 0.0, 0.0, 0.001, 0.0, 0.0, 0.0, 0.001)"
1636524446936692988, 700, 1636512751, 622551918, base_link, 0.00329350868289, -0.0172645454471, -0.700338825143, 0.713594155153, "(0.002629106139136597, 0.0, 0.0, 0.0, 0.0026234731137799727, 0.0, 0.0, 0.0, 0.013266065263653815)", -0.00593620252118, -0.010955431053, -0.111277339196, "(0.001, 0.0, 0.0, 0.0, 0.001, 0.0, 0.0, 0.0, 0.001)", 0.0583699591137, 1.32085629279, 0.144234869537, "(0.001, 0.0, 0.0, 0.0, 0.001, 0.0, 0.0, 0.0, 0.001)"
1636524446955856501, 701, 1636512751, 641571044, base_link, 0.00324716379968, -0.0172817248001, -0.700659358157, 0.713279231257, "(0.002629106139136597, 0.0, 0.0, 0.0, 0.0026234731137799727, 0.0, 0.0, 0.0, 0.013266065263653815)", -0.00424229273164, -0.00836626289316, -0.075254770934, "(0.001, 0.0, 0.0, 0.0, 0.001, 0.0, 0.0, 0.0, 0.001)", 0.301436116856, 0.829215547569, -0.434266009846, "(0.001, 0.0, 0.0, 0.0, 0.001, 0.0, 0.0, 0.0, 0.001)"
1636524446976133740, 702, 1636512751, 661885976, base_link, 0.00322757791599, -0.0172845574649, -0.7009804559, 0.712963692807, "(0.002629106139136597, 0.0, 0.0, 0.0, 0.0026234731137799727, 0.0, 0.0, 0.0, 0.013266065263653815)", -0.00321335367491, -0.00535774968682, -0.075004457978, "(0.001, 0.0, 0.0, 0.0, 0.001, 0.0, 0.0, 0.0, 0.001)", 0.147004814638, 0.897509278416, 0.175999166622, "(0.001, 0.0, 0.0, 0.0, 0.001, 0.0, 0.0, 0.0, 0.001)"
1636524446996784882, 703, 1636512751, 682527065, base_link, 0.00318803072084, -0.0172941041134, -0.701298518621, 0.712650782784, "(0.002629106139136597, 0.0, 0.0, 0.0, 0.0026234731137799727, 0.0, 0.0, 0.0, 0.013266065263653815)", -0.00596127989937, -0.00887321864717, -0.114123508796, "(0.001, 0.0, 0.0, 0.0, 0.001, 0.0, 0.0, 0.0, 0.001)", 0.19350035742, 1.40135627105, -0.332981009862, "(0.001, 0.0, 0.0, 0.0, 0.001, 0.0, 0.0, 0.0, 0.001)"
1636524447016105660, 704, 1636512751, 701936006, base_link, 0.00316530654281, -0.0172835236535, -0.701624726723, 0.712329982168, "(0.002629106139136597, 0.0, 0.0, 0.0, 0.0026234731137799727, 0.0, 0.0, 0.0, 0.013266065263653815)", -0.0035858303929, -0.00436254206472, -0.076003832465, "(0.001, 0.0, 0.0, 0.0, 0.001, 0.0, 0.0, 0.0, 0.001)", 0.181311807801, 0.733360156545, 0.307284475477, "(0.001, 0.0, 0.0, 0.0, 0.001, 0.0, 0.0, 0.0, 0.001)"
1636524447035057887, 705, 1636512751, 720969915, base_link, 0.00316530654281, -0.0172835236535, -0.701624726723, 0.712329982168, "(0.002629106139136597, 0.0, 0.0, 0.0, 0.0026234731137799727, 0.0, 0.0, 0.0, 0.013266065263653815)", -0.00535864639149, -0.00442129389307, -0.11456914878, "(0.001, 0.0, 0.0, 0.0, 0.001, 0.0, 0.0, 0.0, 0.001)", 0.458014412808, 1.2750475016, -0.384975810352, "(0.001, 0.0, 0.0, 0.0, 0.001, 0.0, 0.0, 0.0, 0.001)"
1636524447056136992, 706, 1636512751, 742011070, base_link, 0.00314246404476, -0.0172632986927, -0.702267992864, 0.711696402715, "(0.002629106139136597, 0.0, 0.0, 0.0, 0.0026234731137799727, 0.0, 0.0, 0.0, 0.013266065263653815)", -0.00357820583315, -0.00133143173258, -0.0763613685565, "(0.001, 0.0, 0.0, 0.0, 0.001, 0.0, 0.0, 0.0, 0.001)", 0.125289012783, 0.729854021948, 0.26829475583, "(0.001, 0.0, 0.0, 0.0, 0.001, 0.0, 0.0, 0.0, 0.001)"
1636524447075476876, 707, 1636512751, 761310100, base_link, 0.00312963925282, -0.0172563791317, -0.702584880433, 0.711383798329, "(0.002629106139136597, 0.0, 0.0, 0.0, 0.0026234731137799727, 0.0, 0.0, 0.0, 0.013266065263653815)", -0.00445391386123, -0.0025826151927, -0.114747691139, "(0.001, 0.0, 0.0, 0.0, 0.001, 0.0, 0.0, 0.0, 0.001)", 0.402209612511, 1.39491668352, -0.187346656687, "(0.001, 0.0, 0.0, 0.0, 0.001, 0.0, 0.0, 0.0, 0.001)"
1636524447096278366, 708, 1636512751, 782104015, base_link, 0.00311900360178, -0.0172345148216, -0.702920350493, 0.711052898299, "(0.002629106139136597, 0.0, 0.0, 0.0, 0.0026234731137799727, 0.0, 0.0, 0.0, 0.013266065263653815)", -0.00399653041825, -0.000516734630567, -0.0774518881174, "(0.001, 0.0, 0.0, 0.0, 0.001, 0.0, 0.0, 0.0, 0.001)", -0.0592574398409, 0.810430981102, 0.443145447688, "(0.001, 0.0, 0.0, 0.0, 0.001, 0.0, 0.0, 0.0, 0.001)"
1636524447117676407, 709, 1636512751, 803492069, base_link, 0.0030924691611, -0.0172413235357, -0.703243273275, 0.710733474652, "(0.002629106139136597, 0.0, 0.0, 0.0, 0.0026234731137799727, 0.0, 0.0, 0.0, 0.013266065263653815)", -0.00574520948905, -0.00442376285528, -0.11672048738, "(0.001, 0.0, 0.0, 0.0, 0.001, 0.0, 0.0, 0.0, 0.001)", 0.303318946384, 1.14484374644, -0.145511426016, "(0.001, 0.0, 0.0, 0.0, 0.001, 0.0, 0.0, 0.0, 0.001)"
1636524447136129818, 710, 1636512751, 821749925, base_link, 0.00307032953043, -0.0172067058784, -0.703583726652, 0.710397383118, "(0.002629106139136597, 0.0, 0.0, 0.0, 0.0026234731137799727, 0.0, 0.0, 0.0, 0.013266065263653815)", -0.0048566064502, -0.00133798441009, -0.078885386629, "(0.001, 0.0, 0.0, 0.0, 0.001, 0.0, 0.0, 0.0, 0.001)", -0.0849642636257, 0.864432303752, 0.537243124992, "(0.001, 0.0, 0.0, 0.0, 0.001, 0.0, 0.0, 0.0, 0.001)"
1636524447155490663, 711, 1636512751, 841336011, base_link, 0.00303773310745, -0.0171830395296, -0.703919304069, 0.710065580555, "(0.002629106139136597, 0.0, 0.0, 0.0, 0.0026234731137799727, 0.0, 0.0, 0.0, 0.013266065263653815)", -0.0111644347099, -0.002826969976, -0.120010170497, "(0.001, 0.0, 0.0, 0.0, 0.001, 0.0, 0.0, 0.0, 0.001)", 0.298797614014, 0.927331419612, -0.183932247451, "(0.001, 0.0, 0.0, 0.0, 0.001, 0.0, 0.0, 0.0, 0.001)"
1636524447177258317, 712, 1636512751, 862649917, base_link, 0.0030318710698, -0.0171404967479, -0.704278150702, 0.709710714004, "(0.002629106139136597, 0.0, 0.0, 0.0, 0.0026234731137799727, 0.0, 0.0, 0.0, 0.013266065263653815)", -0.00593061367054, 0.000887289311208, -0.0822468924833, "(0.001, 0.0, 0.0, 0.0, 0.001, 0.0, 0.0, 0.0, 0.001)", -0.086879152986, 0.76379363575, 0.484083332777, "(0.001, 0.0, 0.0, 0.0, 0.001, 0.0, 0.0, 0.0, 0.001)"
1636524447195304632, 713, 1636512751, 881169080, base_link, 0.00303244418232, -0.0170768303715, -0.70463844144, 0.709354532651, "(0.002629106139136597, 0.0, 0.0, 0.0, 0.0026234731137799727, 0.0, 0.0, 0.0, 0.013266065263653815)", -0.0111422369596, 0.00511037734712, -0.127145144665, "(0.001, 0.0, 0.0, 0.0, 0.001, 0.0, 0.0, 0.0, 0.001)", 0.420720935159, 1.0982459984, -0.0119327414367, "(0.001, 0.0, 0.0, 0.0, 0.001, 0.0, 0.0, 0.0, 0.001)"
1636524447216078349, 714, 1636512751, 901915073, base_link, 0.00303146109725, -0.0170049408525, -0.705018228385, 0.708978800724, "(0.002629106139136597, 0.0, 0.0, 0.0, 0.0026234731137799727, 0.0, 0.0, 0.0, 0.013266065263653815)", -0.00813405666768, 0.00631815158205, -0.0871480779828, "(0.001, 0.0, 0.0, 0.0, 0.001, 0.0, 0.0, 0.0, 0.001)", -0.170685702569, 0.66743652818, 0.282082191484, "(0.001, 0.0, 0.0, 0.0, 0.001, 0.0, 0.0, 0.0, 0.001)"
1636524447236746864, 715, 1636512751, 922610044, base_link, 0.00303520417462, -0.0169366533152, -0.705386771477, 0.708613745234, "(0.002629106139136597, 0.0, 0.0, 0.0, 0.0026234731137799727, 0.0, 0.0, 0.0, 0.013266065263653815)", -0.0126182675678, 0.00923422497204, -0.131904995331, "(0.001, 0.0, 0.0, 0.0, 0.001, 0.0, 0.0, 0.0, 0.001)", 0.432637764533, 0.967702879431, -0.0465635298819, "(0.001, 0.0, 0.0, 0.0, 0.001, 0.0, 0.0, 0.0, 0.001)"
1636524447256079906, 716, 1636512751, 941977024, base_link, 0.00302952877939, -0.0168878549002, -0.705771529291, 0.708231721088, "(0.002629106139136597, 0.0, 0.0, 0.0, 0.0026234731137799727, 0.0, 0.0, 0.0, 0.013266065263653815)", -0.00726783936771, 0.00541857807111, -0.0893281332008, "(0.001, 0.0, 0.0, 0.0, 0.001, 0.0, 0.0, 0.0, 0.001)", -0.335710016282, 0.439813359708, 0.150525342309, "(0.001, 0.0, 0.0, 0.0, 0.001, 0.0, 0.0, 0.0, 0.001)"
1636524447276435590, 717, 1636512751, 962181091, base_link, 0.00302444866589, -0.0168612073774, -0.706137189314, 0.707867799991, "(0.002629106139136597, 0.0, 0.0, 0.0, 0.0026234731137799727, 0.0, 0.0, 0.0, 0.013266065263653815)", -0.00900866730012, 0.00313037019769, -0.132704753388, "(0.001, 0.0, 0.0, 0.0, 0.001, 0.0, 0.0, 0.0, 0.001)", 0.227830632493, 1.07096350083, 0.0852040348366, "(0.001, 0.0, 0.0, 0.0, 0.001, 0.0, 0.0, 0.0, 0.001)"
1636524447296600162, 718, 1636512751, 982249021, base_link, 0.00302444866589, -0.0168612073774, -0.706137189314, 0.707867799991, "(0.002629106139136597, 0.0, 0.0, 0.0, 0.0026234731137799727, 0.0, 0.0, 0.0, 0.013266065263653815)", -0.00825474427719, 0.00086177315798, -0.0893235537397, "(0.001, 0.0, 0.0, 0.0, 0.001, 0.0, 0.0, 0.0, 0.001)", -0.168574992969, 0.549920097477, -0.00746369381697, "(0.001, 0.0, 0.0, 0.0, 0.001, 0.0, 0.0, 0.0, 0.001)"
1636524447315761380, 719, 1636512752, 1637935, base_link, 0.00299139363929, -0.0167884100578, -0.706878538814, 0.707129360312, "(0.002629106139136597, 0.0, 0.0, 0.0, 0.0026234731137799727, 0.0, 0.0, 0.0, 0.013266065263653815)", -0.0083200505579, 0.0010774035708, -0.13091479205, "(0.001, 0.0, 0.0, 0.0, 0.001, 0.0, 0.0, 0.0, 0.001)", 0.36636160361, 0.819576593084, -0.0830817480733, "(0.001, 0.0, 0.0, 0.0, 0.001, 0.0, 0.0, 0.0, 0.001)"
1636524447336021922, 720, 1636512752, 21866083, base_link, 0.00297106044936, -0.0167435088808, -0.707254384832, 0.706754598744, "(0.002629106139136597, 0.0, 0.0, 0.0, 0.0026234731137799727, 0.0, 0.0, 0.0, 0.013266065263653815)", -0.007051980197, 0.00213125017247, -0.0880233225588, "(0.001, 0.0, 0.0, 0.0, 0.001, 0.0, 0.0, 0.0, 0.001)", 0.0487509365478, 0.503451814383, -0.1593166389, "(0.001, 0.0, 0.0, 0.0, 0.001, 0.0, 0.0, 0.0, 0.001)"
1636524447357725828, 721, 1636512752, 43601036, base_link, 0.00301469115519, -0.0167249687243, -0.707603682031, 0.706405136048, "(0.002629106139136597, 0.0, 0.0, 0.0, 0.0026234731137799727, 0.0, 0.0, 0.0, 0.013266065263653815)", -0.00382794154493, 0.00546232263627, -0.128569269179, "(0.001, 0.0, 0.0, 0.0, 0.001, 0.0, 0.0, 0.0, 0.001)", 0.253046136699, 0.523350366697, -0.0940759627928, "(0.001, 0.0, 0.0, 0.0, 0.001, 0.0, 0.0, 0.0, 0.001)"
1636524447376819419, 722, 1636512752, 62180042, base_link, 0.0030287915006, -0.0167145842384, -0.707964928425, 0.706043277155, "(0.002629106139136597, 0.0, 0.0, 0.0, 0.0026234731137799727, 0.0, 0.0, 0.0, 0.013266065263653815)", -0.00052067772293, 0.00277028662282, -0.0855418517772, "(0.001, 0.0, 0.0, 0.0, 0.001, 0.0, 0.0, 0.0, 0.001)", 0.0607688242249, 0.698724992905, -0.31024840223, "(0.001, 0.0, 0.0, 0.0, 0.001, 0.0, 0.0, 0.0, 0.001)"
1636524447395505829, 723, 1636512752, 81392049, base_link, 0.00306302019019, -0.0167198695254, -0.708306618249, 0.705700218518, "(0.002629106139136597, 0.0, 0.0, 0.0, 0.0026234731137799727, 0.0, 0.0, 0.0, 0.013266065263653815)", 0.00255439148146, 0.00333817811883, -0.125762290147, "(0.001, 0.0, 0.0, 0.0, 0.001, 0.0, 0.0, 0.0, 0.001)", -0.0150555782605, 0.605828576572, -0.0431430652658, "(0.001, 0.0, 0.0, 0.0, 0.001, 0.0, 0.0, 0.0, 0.001)"
1636524447416501342, 724, 1636512752, 102308034, base_link, 0.00306930607755, -0.0167511831662, -0.708659372419, 0.705345214136, "(0.002629106139136597, 0.0, 0.0, 0.0, 0.0026234731137799727, 0.0, 0.0, 0.0, 0.013266065263653815)", 0.00262532532184, -0.00180882544531, -0.0836739852271, "(0.001, 0.0, 0.0, 0.0, 0.001, 0.0, 0.0, 0.0, 0.001)", -0.00298203652673, 0.510464732383, -0.424283443138, "(0.001, 0.0, 0.0, 0.0, 0.001, 0.0, 0.0, 0.0, 0.001)"
1636524447435322869, 725, 1636512752, 121141910, base_link, 0.00309963693999, -0.0167719733946, -0.708997166777, 0.705005043004, "(0.002629106139136597, 0.0, 0.0, 0.0, 0.0026234731137799727, 0.0, 0.0, 0.0, 0.013266065263653815)", 0.0069073574231, -0.00197002730248, -0.123249450733, "(0.001, 0.0, 0.0, 0.0, 0.001, 0.0, 0.0, 0.0, 0.001)", 0.0384631525256, 0.743239382846, 0.234862430976, "(0.001, 0.0, 0.0, 0.0, 0.001, 0.0, 0.0, 0.0, 0.001)"
1636524447456136252, 726, 1636512752, 141946077, base_link, 0.0030943691153, -0.0168115685399, -0.709348214005, 0.704650911679, "(0.002629106139136597, 0.0, 0.0, 0.0, 0.0026234731137799727, 0.0, 0.0, 0.0, 0.013266065263653815)", 0.00281403505661, -0.00402064099399, -0.0832409824341, "(0.001, 0.0, 0.0, 0.0, 0.001, 0.0, 0.0, 0.0, 0.001)", -0.000116078940949, 0.574158246313, -0.415575759249, "(0.001, 0.0, 0.0, 0.0, 0.001, 0.0, 0.0, 0.0, 0.001)"
1636524447478383682, 727, 1636512752, 164237976, base_link, 0.00310931649875, -0.016839278251, -0.709688575517, 0.704307387893, "(0.002629106139136597, 0.0, 0.0, 0.0, 0.0026234731137799727, 0.0, 0.0, 0.0, 0.013266065263653815)", 0.00669627095595, -0.00580409052612, -0.123488003947, "(0.001, 0.0, 0.0, 0.0, 0.001, 0.0, 0.0, 0.0, 0.001)", 0.0126147979958, 0.908361251725, 0.267901665384, "(0.001, 0.0, 0.0, 0.0, 0.001, 0.0, 0.0, 0.0, 0.001)"
1636524447495803239, 728, 1636512752, 181685924, base_link, 0.00310535705849, -0.0169038593049, -0.71004253739, 0.703949011928, "(0.002629106139136597, 0.0, 0.0, 0.0, 0.0026234731137799727, 0.0, 0.0, 0.0, 0.013266065263653815)", 0.00424617483446, -0.00670753381296, -0.083630941595, "(0.001, 0.0, 0.0, 0.0, 0.001, 0.0, 0.0, 0.0, 0.001)", -0.0293613902702, 0.567554389081, -0.499350841287, "(0.001, 0.0, 0.0, 0.0, 0.001, 0.0, 0.0, 0.0, 0.001)"
1636524447517392640, 729, 1636512752, 203243017, base_link, 0.00310176531498, -0.0169489825005, -0.710389249497, 0.703598056594, "(0.002629106139136597, 0.0, 0.0, 0.0, 0.0026234731137799727, 0.0, 0.0, 0.0, 0.013266065263653815)", 0.00765981750798, -0.010744021108, -0.125512044419, "(0.001, 0.0, 0.0, 0.0, 0.001, 0.0, 0.0, 0.0, 0.001)", -0.260255229268, 0.874261978228, 0.189593994586, "(0.001, 0.0, 0.0, 0.0, 0.001, 0.0, 0.0, 0.0, 0.001)"
1636524447536453236, 730, 1636512752, 222270011, base_link, 0.00308639244397, -0.0170046970865, -0.710746315754, 0.703236083474, "(0.002629106139136597, 0.0, 0.0, 0.0, 0.0026234731137799727, 0.0, 0.0, 0.0, 0.013266065263653815)", 0.00359783063162, -0.00862145825128, -0.0845283917924, "(0.001, 0.0, 0.0, 0.0, 0.001, 0.0, 0.0, 0.0, 0.001)", 0.346247988441, 0.649000236709, -0.447688096964, "(0.001, 0.0, 0.0, 0.0, 0.001, 0.0, 0.0, 0.0, 0.001)"
1636524447555482507, 731, 1636512752, 241235017, base_link, 0.00310397615906, -0.017036056982, -0.711100073361, 0.702877531125, "(0.002629106139136597, 0.0, 0.0, 0.0, 0.0026234731137799727, 0.0, 0.0, 0.0, 0.013266065263653815)", 0.00662304075144, -0.00787479774489, -0.127098308382, "(0.001, 0.0, 0.0, 0.0, 0.001, 0.0, 0.0, 0.0, 0.001)", -0.116398137476, 0.846107775986, 0.268087945326, "(0.001, 0.0, 0.0, 0.0, 0.001, 0.0, 0.0, 0.0, 0.001)"
1636524447576436940, 732, 1636512752, 262279033, base_link, 0.00310279943011, -0.0170773835605, -0.711456876975, 0.702515371939, "(0.002629106139136597, 0.0, 0.0, 0.0, 0.0026234731137799727, 0.0, 0.0, 0.0, 0.013266065263653815)", 0.00385733885207, -0.00638386643588, -0.0853177474584, "(0.001, 0.0, 0.0, 0.0, 0.001, 0.0, 0.0, 0.0, 0.001)", 0.439606160687, 0.660709170226, -0.394613144849, "(0.001, 0.0, 0.0, 0.0, 0.001, 0.0, 0.0, 0.0, 0.001)"
1636524447596621500, 733, 1636512752, 282474040, base_link, 0.00311882410982, -0.0170982223133, -0.711809017121, 0.702157992815, "(0.002629106139136597, 0.0, 0.0, 0.0, 0.0026234731137799727, 0.0, 0.0, 0.0, 0.013266065263653815)", 0.00600246545404, -0.00535497427793, -0.127276665517, "(0.001, 0.0, 0.0, 0.0, 0.001, 0.0, 0.0, 0.0, 0.001)", -0.0537816861154, 0.921124663013, 0.321521954239, "(0.001, 0.0, 0.0, 0.0, 0.001, 0.0, 0.0, 0.0, 0.001)"
1636524447620225062, 734, 1636512752, 306056022, base_link, 0.0031247876494, -0.0171489900928, -0.712166417494, 0.701794230266, "(0.002629106139136597, 0.0, 0.0, 0.0, 0.0026234731137799727, 0.0, 0.0, 0.0, 0.013266065263653815)", 0.00442548877729, -0.00509010216524, -0.0854432515422, "(0.001, 0.0, 0.0, 0.0, 0.001, 0.0, 0.0, 0.0, 0.001)", 0.235812254488, 0.667328034213, -0.338774799346, "(0.001, 0.0, 0.0, 0.0, 0.001, 0.0, 0.0, 0.0, 0.001)"
1636524447637452466, 735, 1636512752, 323333024, base_link, 0.00311406194782, -0.017154628626, -0.712519623993, 0.701435532861, "(0.0045125177832599506, 0.0, 0.0, 0.0, 0.004506711910141681, 0.0, 0.0, 0.0, 0.015263740364169998)", 0.002946351426, -0.00658667769882, -0.127624618992, "(0.001, 0.0, 0.0, 0.0, 0.001, 0.0, 0.0, 0.0, 0.001)", -0.201209167958, 0.974778230071, 0.496023844215, "(0.001, 0.0, 0.0, 0.0, 0.001, 0.0, 0.0, 0.0, 0.001)"
1636524447657214584, 736, 1636512752, 342905044, base_link, 0.00310506080895, -0.0171873543664, -0.712889853108, 0.701058493125, "(0.004287092957115712, 0.0, 0.0, 0.0, 0.004277172268246865, 0.0, 0.0, 0.0, 0.015239176767082085)", 0.00114722467619, -0.00539739949006, -0.0860307777776, "(0.001, 0.0, 0.0, 0.0, 0.001, 0.0, 0.0, 0.0, 0.001)", 0.190411777961, 0.642149372652, -0.21345817878, "(0.001, 0.0, 0.0, 0.0, 0.001, 0.0, 0.0, 0.0, 0.001)"
1636524447675629075, 737, 1636512752, 361494064, base_link, 0.00308567967627, -0.017194264896, -0.713284832009, 0.700656538013, "(0.004287092957115712, 0.0, 0.0, 0.0, 0.004277172268246865, 0.0, 0.0, 0.0, 0.015239176767082085)", -0.000475860276956, -0.00725087187898, -0.131557731373, "(0.001, 0.0, 0.0, 0.0, 0.001, 0.0, 0.0, 0.0, 0.001)", -0.345569574256, 1.05925947403, 0.281700352616, "(0.001, 0.0, 0.0, 0.0, 0.001, 0.0, 0.0, 0.0, 0.001)"
1636524447696104078, 738, 1636512752, 381856918, base_link, 0.00307369187035, -0.0172198251874, -0.713678812236, 0.700254655824, "(0.004287092957115712, 0.0, 0.0, 0.0, 0.004277172268246865, 0.0, 0.0, 0.0, 0.015239176767082085)", -7.34103658565e-05, -0.00587466844137, -0.0899416626457, "(0.001, 0.0, 0.0, 0.0, 0.001, 0.0, 0.0, 0.0, 0.001)", 0.253450081264, 0.682593806555, -0.320756043493, "(0.001, 0.0, 0.0, 0.0, 0.001, 0.0, 0.0, 0.0, 0.001)"
1636524447715210296, 739, 1636512752, 401082038, base_link, 0.00307085097501, -0.0172171764645, -0.71409792634, 0.699827328922, "(0.004287092957115712, 0.0, 0.0, 0.0, 0.004277172268246865, 0.0, 0.0, 0.0, 0.015239176767082085)", -0.000892356653532, -0.00468191110201, -0.139078877063, "(0.001, 0.0, 0.0, 0.0, 0.001, 0.0, 0.0, 0.0, 0.001)", -0.297222196012, 0.907813854487, 0.0599816574453, "(0.001, 0.0, 0.0, 0.0, 0.001, 0.0, 0.0, 0.0, 0.001)"
1636524447736344206, 740, 1636512752, 422214031, base_link, 0.00307915215292, -0.0172241033536, -0.714509802072, 0.699406599789, "(0.004287092957115712, 0.0, 0.0, 0.0, 0.004277172268246865, 0.0, 0.0, 0.0, 0.015239176767082085)", -5.29988464494e-06, -0.00245868568842, -0.0940113454199, "(0.001, 0.0, 0.0, 0.0, 0.001, 0.0, 0.0, 0.0, 0.001)", 0.433371662261, 0.711546334254, -0.128598239982, "(0.001, 0.0, 0.0, 0.0, 0.001, 0.0, 0.0, 0.0, 0.001)"
1636524447757072726, 741, 1636512752, 442859888, base_link, 0.00306559269048, -0.0172227913827, -0.71493735691, 0.698969636889, "(0.004287092957115712, 0.0, 0.0, 0.0, 0.004277172268246865, 0.0, 0.0, 0.0, 0.015239176767082085)", -0.0016821792271, -0.00279345879149, -0.144055469618, "(0.001, 0.0, 0.0, 0.0, 0.001, 0.0, 0.0, 0.0, 0.001)", -0.170614302965, 0.97960201855, 0.002249953607, "(0.001, 0.0, 0.0, 0.0, 0.001, 0.0, 0.0, 0.0, 0.001)"
1636524447776205693, 742, 1636512752, 462099075, base_link, 0.00305724813707, -0.0172372922026, -0.715344436399, 0.698552694007, "(0.004287092957115712, 0.0, 0.0, 0.0, 0.004277172268246865, 0.0, 0.0, 0.0, 0.015239176767082085)", -0.000412388675557, -0.00463144126574, -0.0946629631829, "(0.001, 0.0, 0.0, 0.0, 0.001, 0.0, 0.0, 0.0, 0.001)", 0.418547057578, 0.643216520194, -0.0704483673381, "(0.001, 0.0, 0.0, 0.0, 0.001, 0.0, 0.0, 0.0, 0.001)"
1636524447795675327, 743, 1636512752, 481443881, base_link, 0.00302385422079, -0.0172528714652, -0.715756406904, 0.698130332178, "(0.004287092957115712, 0.0, 0.0, 0.0, 0.004277172268246865, 0.0, 0.0, 0.0, 0.015239176767082085)", -0.0029559829956, -0.00795937837032, -0.141201566134, "(0.001, 0.0, 0.0, 0.0, 0.001, 0.0, 0.0, 0.0, 0.001)", 0.0667724147118, 0.851234344972, -0.170247322329, "(0.001, 0.0, 0.0, 0.0, 0.001, 0.0, 0.0, 0.0, 0.001)"
1636524447815980009, 744, 1636512752, 501791954, base_link, 0.00300973098034, -0.017280032916, -0.716145637756, 0.697730440431, "(0.004287092957115712, 0.0, 0.0, 0.0, 0.004277172268246865, 0.0, 0.0, 0.0, 0.015239176767082085)", -0.000218452166048, -0.00649770570119, -0.0913832258737, "(0.001, 0.0, 0.0, 0.0, 0.001, 0.0, 0.0, 0.0, 0.001)", 0.503633597075, 0.577871778095, -0.0756560845642, "(0.001, 0.0, 0.0, 0.0, 0.001, 0.0, 0.0, 0.0, 0.001)"
1636524447836429891, 745, 1636512752, 522083044, base_link, 0.00298849000469, -0.0172717812258, -0.716539568769, 0.697326179696, "(0.004287092957115712, 0.0, 0.0, 0.0, 0.004277172268246865, 0.0, 0.0, 0.0, 0.015239176767082085)", -0.00264250362661, -0.00688989553873, -0.135470449154, "(0.001, 0.0, 0.0, 0.0, 0.001, 0.0, 0.0, 0.0, 0.001)", 0.474587958169, 0.959492786729, -0.228589021679, "(0.001, 0.0, 0.0, 0.0, 0.001, 0.0, 0.0, 0.0, 0.001)"
1636524447855948671, 746, 1636512752, 541824102, base_link, 0.00302381065539, -0.0172477391908, -0.716909972468, 0.696945810976, "(0.004287092957115712, 0.0, 0.0, 0.0, 0.004277172268246865, 0.0, 0.0, 0.0, 0.015239176767082085)", -0.00117098022568, 0.00118138235897, -0.0870650375394, "(0.001, 0.0, 0.0, 0.0, 0.001, 0.0, 0.0, 0.0, 0.001)", 0.748084985229, 0.669019978095, 0.0888793977084, "(0.001, 0.0, 0.0, 0.0, 0.001, 0.0, 0.0, 0.0, 0.001)"
1636524447875958276, 747, 1636512752, 561785936, base_link, 0.0030415031861, -0.0172014965664, -0.717293920201, 0.69655171367, "(0.004287092957115712, 0.0, 0.0, 0.0, 0.004277172268246865, 0.0, 0.0, 0.0, 0.015239176767082085)", -0.00353950934237, 0.00596657705859, -0.130927348108, "(0.001, 0.0, 0.0, 0.0, 0.001, 0.0, 0.0, 0.0, 0.001)", 0.461580718323, 1.11746017902, -0.0810989507912, "(0.001, 0.0, 0.0, 0.0, 0.001, 0.0, 0.0, 0.0, 0.001)"
1636524447896477545, 748, 1636512752, 582369089, base_link, 0.0031174502269, -0.0171282908217, -0.717651527098, 0.69618473756, "(0.004287092957115712, 0.0, 0.0, 0.0, 0.004277172268246865, 0.0, 0.0, 0.0, 0.015239176767082085)", -0.00145180599703, 0.0111093762892, -0.0843727279851, "(0.001, 0.0, 0.0, 0.0, 0.001, 0.0, 0.0, 0.0, 0.001)", 0.766413087636, 0.673123488766, 0.17506628815, "(0.001, 0.0, 0.0, 0.0, 0.001, 0.0, 0.0, 0.0, 0.001)"
1636524447915604859, 749, 1636512752, 601496934, base_link, 0.00317188709011, -0.0170368353817, -0.718011684903, 0.695815281318, "(0.004287092957115712, 0.0, 0.0, 0.0, 0.004277172268246865, 0.0, 0.0, 0.0, 0.015239176767082085)", -0.00579141926183, 0.0211446293881, -0.124909501384, "(0.001, 0.0, 0.0, 0.0, 0.001, 0.0, 0.0, 0.0, 0.001)", 0.559458985005, 1.04399701116, -0.272120121625, "(0.001, 0.0, 0.0, 0.0, 0.001, 0.0, 0.0, 0.0, 0.001)"
1636524447936339501, 750, 1636512752, 622236013, base_link, 0.00324515333337, -0.0169332820892, -0.718354580634, 0.695463463756, "(0.004287092957115712, 0.0, 0.0, 0.0, 0.004277172268246865, 0.0, 0.0, 0.0, 0.015239176767082085)", -0.00343140233283, 0.0164073621588, -0.0801026999893, "(0.001, 0.0, 0.0, 0.0, 0.001, 0.0, 0.0, 0.0, 0.001)", 0.330370138568, 0.705892399032, 0.427702291526, "(0.001, 0.0, 0.0, 0.0, 0.001, 0.0, 0.0, 0.0, 0.001)"
1636524447955604160, 751, 1636512752, 641357898, base_link, 0.00328959813039, -0.0168206223632, -0.718704589601, 0.695104278575, "(0.004287092957115712, 0.0, 0.0, 0.0, 0.004277172268246865, 0.0, 0.0, 0.0, 0.015239176767082085)", -0.0102990940483, 0.0250873093478, -0.120724638434, "(0.001, 0.0, 0.0, 0.0, 0.001, 0.0, 0.0, 0.0, 0.001)", 0.505453499168, 1.0068854641, -0.0525000127112, "(0.001, 0.0, 0.0, 0.0, 0.001, 0.0, 0.0, 0.0, 0.001)"
1636524447977477791, 752, 1636512752, 662326097, base_link, 0.00336018849319, -0.0166968755282, -0.719040219907, 0.694759732308, "(0.004287092957115712, 0.0, 0.0, 0.0, 0.004277172268246865, 0.0, 0.0, 0.0, 0.015239176767082085)", -0.00661417044932, 0.0190242041126, -0.0780204382434, "(0.001, 0.0, 0.0, 0.0, 0.001, 0.0, 0.0, 0.0, 0.001)", 0.0582616058207, 0.708672315675, 0.580224512051, "(0.001, 0.0, 0.0, 0.0, 0.001, 0.0, 0.0, 0.0, 0.001)"
1636524447996454361, 753, 1636512752, 682312965, base_link, 0.00341161382082, -0.0165433939642, -0.719389602869, 0.694401379817, "(0.004287092957115712, 0.0, 0.0, 0.0, 0.004277172268246865, 0.0, 0.0, 0.0, 0.015239176767082085)", -0.0152402040936, 0.0303454693629, -0.118846987525, "(0.001, 0.0, 0.0, 0.0, 0.001, 0.0, 0.0, 0.0, 0.001)", 0.575067468194, 0.993803224811, -0.0498126034884, "(0.001, 0.0, 0.0, 0.0, 0.001, 0.0, 0.0, 0.0, 0.001)"
1636524448015934257, 754, 1636512752, 701775074, base_link, 0.00348750179565, -0.0163883710473, -0.719744013253, 0.694037328976, "(0.004287092957115712, 0.0, 0.0, 0.0, 0.004277172268246865, 0.0, 0.0, 0.0, 0.015239176767082085)", -0.00988787888546, 0.0234782360124, -0.0802857719453, "(0.001, 0.0, 0.0, 0.0, 0.001, 0.0, 0.0, 0.0, 0.001)", -0.239888457919, 0.444458162884, 0.523351810059, "(0.001, 0.0, 0.0, 0.0, 0.001, 0.0, 0.0, 0.0, 0.001)"
1636524448035975485, 755, 1636512752, 721860885, base_link, 0.00354034816213, -0.0162494651183, -0.720107397999, 0.693663287313, "(0.004287092957115712, 0.0, 0.0, 0.0, 0.004277172268246865, 0.0, 0.0, 0.0, 0.015239176767082085)", -0.0164980254932, 0.0323121027576, -0.123821277394, "(0.001, 0.0, 0.0, 0.0, 0.001, 0.0, 0.0, 0.0, 0.001)", 0.117110268784, 0.845599532966, -0.0880984908405, "(0.001, 0.0, 0.0, 0.0, 0.001, 0.0, 0.0, 0.0, 0.001)"
1636524448060520253, 756, 1636512752, 746335983, base_link, 0.00359353086961, -0.0160991511298, -0.720479173305, 0.69328036515, "(0.004287092957115712, 0.0, 0.0, 0.0, 0.004277172268246865, 0.0, 0.0, 0.0, 0.015239176767082085)", -0.0105121345531, 0.0211961222276, -0.0839956262778, "(0.001, 0.0, 0.0, 0.0, 0.001, 0.0, 0.0, 0.0, 0.001)", -0.540029731952, 0.474782652595, 0.569268592474, "(0.001, 0.0, 0.0, 0.0, 0.001, 0.0, 0.0, 0.0, 0.001)"
1636524448075835659, 757, 1636512752, 761426925, base_link, 0.00361979280716, -0.0159899446571, -0.720851095425, 0.692896036209, "(0.004287092957115712, 0.0, 0.0, 0.0, 0.004277172268246865, 0.0, 0.0, 0.0, 0.015239176767082085)", -0.0170132830471, 0.0259153124823, -0.12840152278, "(0.001, 0.0, 0.0, 0.0, 0.001, 0.0, 0.0, 0.0, 0.001)", 0.0226875637421, 0.80645082922, -0.179794740935, "(0.001, 0.0, 0.0, 0.0, 0.001, 0.0, 0.0, 0.0, 0.001)"
1636524448098608425, 758, 1636512752, 781872034, base_link, 0.00362678445656, -0.015872884918, -0.721234226684, 0.69249988319, "(0.004287092957115712, 0.0, 0.0, 0.0, 0.004277172268246865, 0.0, 0.0, 0.0, 0.015239176767082085)", -0.0116980611785, 0.0144728438448, -0.0865558481181, "(0.001, 0.0, 0.0, 0.0, 0.001, 0.0, 0.0, 0.0, 0.001)", -0.605409119257, 0.389039134103, 0.442446523985, "(0.001, 0.0, 0.0, 0.0, 0.001, 0.0, 0.0, 0.0, 0.001)"
1636524448119030020, 759, 1636512752, 803102970, base_link, 0.0036359339735, -0.0158067509726, -0.721602510506, 0.692117579201, "(0.004287092957115712, 0.0, 0.0, 0.0, 0.004277172268246865, 0.0, 0.0, 0.0, 0.015239176767082085)", -0.0148396543246, 0.0146572809372, -0.129540012901, "(0.001, 0.0, 0.0, 0.0, 0.001, 0.0, 0.0, 0.0, 0.001)", 0.0421472830465, 0.737112745773, -0.329253742148, "(0.001, 0.0, 0.0, 0.0, 0.001, 0.0, 0.0, 0.0, 0.001)"
1636524448136073475, 760, 1636512752, 821897983, base_link, 0.00361164874424, -0.0157453350864, -0.721974780189, 0.691730769294, "(0.004287092957115712, 0.0, 0.0, 0.0, 0.004277172268246865, 0.0, 0.0, 0.0, 0.015239176767082085)", -0.00939028129391, 0.00573422912539, -0.0853781703717, "(0.001, 0.0, 0.0, 0.0, 0.001, 0.0, 0.0, 0.0, 0.001)", -0.569252041181, 0.497046609684, 0.220612344958, "(0.001, 0.0, 0.0, 0.0, 0.001, 0.0, 0.0, 0.0, 0.001)"
1636524448155405010, 761, 1636512752, 841227054, base_link, 0.00358895872382, -0.0157086040193, -0.72232662913, 0.691364303377, "(0.004287092957115712, 0.0, 0.0, 0.0, 0.004277172268246865, 0.0, 0.0, 0.0, 0.015239176767082085)", -0.0137348371116, 0.00204956687442, -0.125564048419, "(0.001, 0.0, 0.0, 0.0, 0.001, 0.0, 0.0, 0.0, 0.001)", 0.254024207065, 0.652973862083, -0.36886167083, "(0.001, 0.0, 0.0, 0.0, 0.001, 0.0, 0.0, 0.0, 0.001)"
1636524448176600057, 762, 1636512752, 862164974, base_link, 0.00354054481375, -0.0156856623076, -0.72268246093, 0.690993115165, "(0.004287092957115712, 0.0, 0.0, 0.0, 0.004277172268246865, 0.0, 0.0, 0.0, 0.015239176767082085)", -0.00803206519775, -0.00149820975206, -0.0819484243317, "(0.001, 0.0, 0.0, 0.0, 0.001, 0.0, 0.0, 0.0, 0.001)", -0.411413968348, 0.46284989438, 0.215310285361, "(0.001, 0.0, 0.0, 0.0, 0.001, 0.0, 0.0, 0.0, 0.001)"
1636524448195413800, 763, 1636512752, 881302118, base_link, 0.00352093537726, -0.0156569603351, -0.723011305097, 0.690649777608, "(0.004287092957115712, 0.0, 0.0, 0.0, 0.004277172268246865, 0.0, 0.0, 0.0, 0.015239176767082085)", -0.0112703978609, -0.00243793549426, -0.118553765467, "(0.001, 0.0, 0.0, 0.0, 0.001, 0.0, 0.0, 0.0, 0.001)", 0.555422627507, 0.786023608169, -0.256742265883, "(0.001, 0.0, 0.0, 0.0, 0.001, 0.0, 0.0, 0.0, 0.001)"
1636524448216022394, 764, 1636512752, 901870965, base_link, 0.00348767093231, -0.0156269501147, -0.723346056617, 0.690300019527, "(0.004287092957115712, 0.0, 0.0, 0.0, 0.004277172268246865, 0.0, 0.0, 0.0, 0.015239176767082085)", -0.0071946867411, -0.000874619257299, -0.0774201326465, "(0.001, 0.0, 0.0, 0.0, 0.001, 0.0, 0.0, 0.0, 0.001)", -0.357242076892, 0.413558188912, -0.0380968500467, "(0.001, 0.0, 0.0, 0.0, 0.001, 0.0, 0.0, 0.0, 0.001)"
1636524448237741367, 765, 1636512752, 923209905, base_link, 0.00347841040981, -0.0156204392276, -0.723660339166, 0.689970735653, "(0.004287092957115712, 0.0, 0.0, 0.0, 0.004277172268246865, 0.0, 0.0, 0.0, 0.015239176767082085)", -0.00685940764064, -0.00348570724322, -0.112566300719, "(0.001, 0.0, 0.0, 0.0, 0.001, 0.0, 0.0, 0.0, 0.001)", 0.353354562947, 0.330274941866, -0.313325952783, "(0.001, 0.0, 0.0, 0.0, 0.001, 0.0, 0.0, 0.0, 0.001)"
1636524448255870246, 766, 1636512752, 941685914, base_link, 0.00346767782428, -0.0156231700188, -0.723987662259, 0.689627259224, "(0.004287092957115712, 0.0, 0.0, 0.0, 0.004277172268246865, 0.0, 0.0, 0.0, 0.015239176767082085)", -0.00249880649879, -0.00193955659355, -0.0750862649793, "(0.001, 0.0, 0.0, 0.0, 0.001, 0.0, 0.0, 0.0, 0.001)", -0.179911533244, 0.338271410054, -0.301862115245, "(0.001, 0.0, 0.0, 0.0, 0.001, 0.0, 0.0, 0.0, 0.001)"
1636524448275952530, 767, 1636512752, 961795091, base_link, 0.00348389581369, -0.0156334293496, -0.724296885212, 0.689302169175, "(0.004287092957115712, 0.0, 0.0, 0.0, 0.004277172268246865, 0.0, 0.0, 0.0, 0.015239176767082085)", 0.00142667033976, -0.00216372498208, -0.110008330898, "(0.001, 0.0, 0.0, 0.0, 0.001, 0.0, 0.0, 0.0, 0.001)", 0.275849405756, 0.598792890331, -0.0874513730863, "(0.001, 0.0, 0.0, 0.0, 0.001, 0.0, 0.0, 0.0, 0.001)"
1636524448296906402, 768, 1636512752, 982768058, base_link, 0.00348319866151, -0.0156584079956, -0.724627922911, 0.688953594173, "(0.004287092957115712, 0.0, 0.0, 0.0, 0.004277172268246865, 0.0, 0.0, 0.0, 0.015239176767082085)", 0.00138090459837, -0.00288713141881, -0.075229601425, "(0.001, 0.0, 0.0, 0.0, 0.001, 0.0, 0.0, 0.0, 0.001)", -0.203686733445, 0.378421644238, -0.447597289034, "(0.001, 0.0, 0.0, 0.0, 0.001, 0.0, 0.0, 0.0, 0.001)"
1636524448315917291, 769, 1636512753, 1765966, base_link, 0.0034931931328, -0.0157209348446, -0.724947556025, 0.688615778808, "(0.004287092957115712, 0.0, 0.0, 0.0, 0.004277172268246865, 0.0, 0.0, 0.0, 0.015239176767082085)", 0.00813519782794, -0.00777697475941, -0.112150901362, "(0.001, 0.0, 0.0, 0.0, 0.001, 0.0, 0.0, 0.0, 0.001)", -0.0847676862938, 0.884985008256, -0.0429247521887, "(0.001, 0.0, 0.0, 0.0, 0.001, 0.0, 0.0, 0.0, 0.001)"
1636524448336309468, 770, 1636512753, 22142887, base_link, 0.00344514131477, -0.0157853063764, -0.725289017306, 0.688254892085, "(0.004287092957115712, 0.0, 0.0, 0.0, 0.004277172268246865, 0.0, 0.0, 0.0, 0.015239176767082085)", 0.00307207979843, -0.0104023188412, -0.0774808327712, "(0.001, 0.0, 0.0, 0.0, 0.001, 0.0, 0.0, 0.0, 0.001)", -0.294380589888, 0.465098725392, -0.467113323044, "(0.001, 0.0, 0.0, 0.0, 0.001, 0.0, 0.0, 0.0, 0.001)"
1636524448356421949, 771, 1636512753, 42311906, base_link, 0.00343376066703, -0.0158899802562, -0.725629835188, 0.687893203993, "(0.004287092957115712, 0.0, 0.0, 0.0, 0.004277172268246865, 0.0, 0.0, 0.0, 0.015239176767082085)", 0.010700364008, -0.0197638506702, -0.117829757037, "(0.001, 0.0, 0.0, 0.0, 0.001, 0.0, 0.0, 0.0, 0.001)", -0.162599211783, 0.830812406142, -0.00293206454826, "(0.001, 0.0, 0.0, 0.0, 0.001, 0.0, 0.0, 0.0, 0.001)"
1636524448376215840, 772, 1636512753, 62027931, base_link, 0.00336051076805, -0.0159921711601, -0.72598879775, 0.687512343868, "(0.004287092957115712, 0.0, 0.0, 0.0, 0.004277172268246865, 0.0, 0.0, 0.0, 0.015239176767082085)", 0.00469998424116, -0.0178147597643, -0.08178708999, "(0.001, 0.0, 0.0, 0.0, 0.001, 0.0, 0.0, 0.0, 0.001)", -0.182627607156, 0.729437167795, -0.515489707486, "(0.001, 0.0, 0.0, 0.0, 0.001, 0.0, 0.0, 0.0, 0.001)"
1636524448395552855, 773, 1636512753, 81269025, base_link, 0.00331055553297, -0.0160988511404, -0.726352413323, 0.687125926504, "(0.004287092957115712, 0.0, 0.0, 0.0, 0.004277172268246865, 0.0, 0.0, 0.0, 0.015239176767082085)", 0.00868070995732, -0.0282741129385, -0.124189600429, "(0.001, 0.0, 0.0, 0.0, 0.001, 0.0, 0.0, 0.0, 0.001)", -0.329108607641, 0.972235730763, 0.168003638943, "(0.001, 0.0, 0.0, 0.0, 0.001, 0.0, 0.0, 0.0, 0.001)"
1636524448416362971, 774, 1636512753, 102184057, base_link, 0.00321210903822, -0.0162118373854, -0.726733936846, 0.686720207742, "(0.004287092957115712, 0.0, 0.0, 0.0, 0.004277172268246865, 0.0, 0.0, 0.0, 0.015239176767082085)", 0.00288547580018, -0.0226490938129, -0.0874700390187, "(0.001, 0.0, 0.0, 0.0, 0.001, 0.0, 0.0, 0.0, 0.001)", -0.0111750726709, 0.778929976593, -0.369993821177, "(0.001, 0.0, 0.0, 0.0, 0.001, 0.0, 0.0, 0.0, 0.001)"
1636524448435384194, 775, 1636512753, 121082067, base_link, 0.0031136829171, -0.0162897281845, -0.727112685585, 0.686317777852, "(0.004287092957115712, 0.0, 0.0, 0.0, 0.004277172268246865, 0.0, 0.0, 0.0, 0.015239176767082085)", -2.17041938168e-05, -0.0345353327996, -0.131104727517, "(0.001, 0.0, 0.0, 0.0, 0.001, 0.0, 0.0, 0.0, 0.001)", -0.241887299403, 0.877109679768, 0.456006909163, "(0.001, 0.0, 0.0, 0.0, 0.001, 0.0, 0.0, 0.0, 0.001)"
1636524448456271938, 776, 1636512753, 142004013, base_link, 0.00299710563142, -0.016384338412, -0.727502002613, 0.685903351069, "(0.004287092957115712, 0.0, 0.0, 0.0, 0.004277172268246865, 0.0, 0.0, 0.0, 0.015239176767082085)", -0.00206716572125, -0.0237604866982, -0.0898427695923, "(0.001, 0.0, 0.0, 0.0, 0.001, 0.0, 0.0, 0.0, 0.001)", 0.346155005632, 0.68326268112, -0.382622295367, "(0.001, 0.0, 0.0, 0.0, 0.001, 0.0, 0.0, 0.0, 0.001)"
1636524448477085827, 777, 1636512753, 162821054, base_link, 0.00286948379405, -0.0164542369183, -0.727889541768, 0.685490947522, "(0.004287092957115712, 0.0, 0.0, 0.0, 0.004277172268246865, 0.0, 0.0, 0.0, 0.015239176767082085)", -0.00551304136039, -0.0353158686001, -0.134533833699, "(0.001, 0.0, 0.0, 0.0, 0.001, 0.0, 0.0, 0.0, 0.001)", -0.413882805441, 1.08133547429, 0.565680389682, "(0.001, 0.0, 0.0, 0.0, 0.001, 0.0, 0.0, 0.0, 0.001)"
1636524448497723227, 778, 1636512753, 183490991, base_link, 0.00273050880839, -0.0165326495089, -0.728275440816, 0.68507962904, "(0.004287092957115712, 0.0, 0.0, 0.0, 0.004277172268246865, 0.0, 0.0, 0.0, 0.015239176767082085)", -0.00691526247294, -0.026120038394, -0.0904480015179, "(0.001, 0.0, 0.0, 0.0, 0.001, 0.0, 0.0, 0.0, 0.001)", 0.371727127807, 0.816205414652, -0.192358005446, "(0.001, 0.0, 0.0, 0.0, 0.001, 0.0, 0.0, 0.0, 0.001)"
1636524448515761836, 779, 1636512753, 201648950, base_link, 0.00256230162934, -0.0165812479412, -0.728652811607, 0.68467771759, "(0.004287092957115712, 0.0, 0.0, 0.0, 0.004277172268246865, 0.0, 0.0, 0.0, 0.015239176767082085)", -0.0140757823576, -0.0393937796821, -0.132515410896, "(0.001, 0.0, 0.0, 0.0, 0.001, 0.0, 0.0, 0.0, 0.001)", -0.309100373665, 1.11733098625, 0.704503727988, "(0.001, 0.0, 0.0, 0.0, 0.001, 0.0, 0.0, 0.0, 0.001)"
1636524448536646164, 780, 1636512753, 222507953, base_link, 0.0024074007987, -0.0166313104688, -0.729031265139, 0.684274081332, "(0.004287092957115712, 0.0, 0.0, 0.0, 0.004277172268246865, 0.0, 0.0, 0.0, 0.015239176767082085)", -0.0126985648772, -0.0257242012618, -0.088502856199, "(0.001, 0.0, 0.0, 0.0, 0.001, 0.0, 0.0, 0.0, 0.001)", 0.67366229315, 0.656730331154, -0.0657636852445, "(0.001, 0.0, 0.0, 0.0, 0.001, 0.0, 0.0, 0.0, 0.001)"
1636524448556043796, 781, 1636512753, 241564989, base_link, 0.00227330330208, -0.0166163918403, -0.729402546465, 0.683879121501, "(0.004287092957115712, 0.0, 0.0, 0.0, 0.004277172268246865, 0.0, 0.0, 0.0, 0.015239176767082085)", -0.0212256158006, -0.0297057458871, -0.130502422535, "(0.001, 0.0, 0.0, 0.0, 0.001, 0.0, 0.0, 0.0, 0.001)", 0.231621369741, 0.949564884136, 0.578181680836, "(0.001, 0.0, 0.0, 0.0, 0.001, 0.0, 0.0, 0.0, 0.001)"
1636524448576334955, 782, 1636512753, 261878013, base_link, 0.00213554930331, -0.0166289841874, -0.72975653887, 0.68350150716, "(0.004287092957115712, 0.0, 0.0, 0.0, 0.004277172268246865, 0.0, 0.0, 0.0, 0.015239176767082085)", -0.0148085714264, -0.019210403087, -0.0847724286196, "(0.001, 0.0, 0.0, 0.0, 0.001, 0.0, 0.0, 0.0, 0.001)", 0.707959472457, 0.60534768634, 0.0333072469682, "(0.001, 0.0, 0.0, 0.0, 0.001, 0.0, 0.0, 0.0, 0.001)"
1636524448600002144, 783, 1636512753, 285793066, base_link, 0.00198446419269, -0.0166108487145, -0.730112536508, 0.683122116199, "(0.004287092957115712, 0.0, 0.0, 0.0, 0.004277172268246865, 0.0, 0.0, 0.0, 0.015239176767082085)", -0.0255220402214, -0.0266085840035, -0.124321614268, "(0.001, 0.0, 0.0, 0.0, 0.001, 0.0, 0.0, 0.0, 0.001)", 0.30993487699, 0.652767148627, 0.487180646737, "(0.001, 0.0, 0.0, 0.0, 0.001, 0.0, 0.0, 0.0, 0.001)"
1636524448619980953, 784, 1636512753, 305728912, base_link, 0.00198446419269, -0.0166108487145, -0.730112536508, 0.683122116199, "(0.004287092957115712, 0.0, 0.0, 0.0, 0.004277172268246865, 0.0, 0.0, 0.0, 0.015239176767082085)", -0.0160049206625, -0.0156487254288, -0.0803543698114, "(0.001, 0.0, 0.0, 0.0, 0.001, 0.0, 0.0, 0.0, 0.001)", 0.856178733127, 0.343687629133, 0.0242163016229, "(0.001, 0.0, 0.0, 0.0, 0.001, 0.0, 0.0, 0.0, 0.001)"
1636524448639520073, 785, 1636512753, 325237035, base_link, 0.00173807277128, -0.0165785323935, -0.730781482652, 0.682407910255, "(0.005983965067262231, 0.0, 0.0, 0.0, 0.00597324634430052, 0.0, 0.0, 0.0, 0.017043764736160094)", -0.0244253436757, -0.0211223873715, -0.117616788041, "(0.001, 0.0, 0.0, 0.0, 0.001, 0.0, 0.0, 0.0, 0.001)", 0.35710897835, 0.486417038568, 0.413026504189, "(0.001, 0.0, 0.0, 0.0, 0.001, 0.0, 0.0, 0.0, 0.001)"
1636524448656651920, 786, 1636512753, 342365026, base_link, 0.00165124521025, -0.0165433490062, -0.731107180479, 0.682060027889, "(0.005481276661157608, 0.0, 0.0, 0.0, 0.005465068060830858, 0.0, 0.0, 0.0, 0.01699630737275748)", -0.0155303418929, -0.0108904931691, -0.0769433001446, "(0.001, 0.0, 0.0, 0.0, 0.001, 0.0, 0.0, 0.0, 0.001)", 0.623941976037, 0.414440561566, 0.251315695688, "(0.001, 0.0, 0.0, 0.0, 0.001, 0.0, 0.0, 0.0, 0.001)"
1636524448675544734, 787, 1636512753, 361352920, base_link, 0.00152690964559, -0.0164963961301, -0.731453397267, 0.681690153287, "(0.005481276661157608, 0.0, 0.0, 0.0, 0.005465068060830858, 0.0, 0.0, 0.0, 0.01699630737275748)", -0.0266959356253, -0.0152649518861, -0.118387454727, "(0.001, 0.0, 0.0, 0.0, 0.001, 0.0, 0.0, 0.0, 0.001)", 0.28966999903, 0.402317874456, 0.190822009096, "(0.001, 0.0, 0.0, 0.0, 0.001, 0.0, 0.0, 0.0, 0.001)"
1636524448696281555, 788, 1636512753, 382111072, base_link, 0.00145795061919, -0.0164737499146, -0.731784964041, 0.681334907624, "(0.005481276661157608, 0.0, 0.0, 0.0, 0.005465068060830858, 0.0, 0.0, 0.0, 0.01699630737275748)", -0.013602870891, -0.00866938280186, -0.0778862714637, "(0.001, 0.0, 0.0, 0.0, 0.001, 0.0, 0.0, 0.0, 0.001)", 0.308585002016, 0.21661228722, 0.164425891307, "(0.001, 0.0, 0.0, 0.0, 0.001, 0.0, 0.0, 0.0, 0.001)"
1636524448716034851, 789, 1636512753, 401897907, base_link, 0.0013734757415, -0.0164306080366, -0.732153658724, 0.680939915632, "(0.005481276661157608, 0.0, 0.0, 0.0, 0.005465068060830858, 0.0, 0.0, 0.0, 0.01699630737275748)", -0.0214867780595, -0.0110374525151, -0.123650554606, "(0.001, 0.0, 0.0, 0.0, 0.001, 0.0, 0.0, 0.0, 0.001)", 0.199320204074, 0.637211746734, -0.238293053001, "(0.001, 0.0, 0.0, 0.0, 0.001, 0.0, 0.0, 0.0, 0.001)"
1636524448736280826, 790, 1636512753, 422003030, base_link, 0.00133043974766, -0.0163609610594, -0.732519010176, 0.680548637949, "(0.005481276661157608, 0.0, 0.0, 0.0, 0.005465068060830858, 0.0, 0.0, 0.0, 0.01699630737275748)", -0.0134141746497, -0.00278800844078, -0.0841763201833, "(0.001, 0.0, 0.0, 0.0, 0.001, 0.0, 0.0, 0.0, 0.001)", 0.10370890098, 0.22929713265, 0.251026973542, "(0.001, 0.0, 0.0, 0.0, 0.001, 0.0, 0.0, 0.0, 0.001)"
1636524448757139587, 791, 1636512753, 443042993, base_link, 0.00130915269995, -0.0163014955363, -0.732918767909, 0.680119568172, "(0.005481276661157608, 0.0, 0.0, 0.0, 0.005465068060830858, 0.0, 0.0, 0.0, 0.01699630737275748)", -0.0185760948551, 2.70021962065e-05, -0.134202373035, "(0.001, 0.0, 0.0, 0.0, 0.001, 0.0, 0.0, 0.0, 0.001)", 0.664034664813, 0.564152137971, -0.414723367957, "(0.001, 0.0, 0.0, 0.0, 0.001, 0.0, 0.0, 0.0, 0.001)"
1636524448777612769, 792, 1636512753, 462723016, base_link, 0.00129148930018, -0.0162126379454, -0.733326021939, 0.679682593549, "(0.005481276661157608, 0.0, 0.0, 0.0, 0.005465068060830858, 0.0, 0.0, 0.0, 0.01699630737275748)", -0.0176328808167, 0.00714301823356, -0.139979745744, "(0.001, 0.0, 0.0, 0.0, 0.001, 0.0, 0.0, 0.0, 0.001)", -0.129463850729, 0.661020371438, 0.244520030999, "(0.001, 0.0, 0.0, 0.0, 0.001, 0.0, 0.0, 0.0, 0.001)"
1636524448795502921, 793, 1636512753, 481324911, base_link, 0.00129551358462, -0.0161228874445, -0.733725266921, 0.679253713149, "(0.005481276661157608, 0.0, 0.0, 0.0, 0.005465068060830858, 0.0, 0.0, 0.0, 0.01699630737275748)", -0.0118214292607, 0.00697943015716, -0.0944738166936, "(0.001, 0.0, 0.0, 0.0, 0.001, 0.0, 0.0, 0.0, 0.001)", 0.932030398658, 0.218639761895, -0.437059684264, "(0.001, 0.0, 0.0, 0.0, 0.001, 0.0, 0.0, 0.0, 0.001)"
1636524448816695471, 794, 1636512753, 502142906, base_link, 0.00131108218509, -0.0160203601928, -0.734127094957, 0.678821801044, "(0.005481276661157608, 0.0, 0.0, 0.0, 0.005465068060830858, 0.0, 0.0, 0.0, 0.01699630737275748)", -0.0105556844848, 0.00981245340322, -0.0936128360117, "(0.001, 0.0, 0.0, 0.0, 0.001, 0.0, 0.0, 0.0, 0.001)", -0.0470025480038, 0.36805429108, 0.29120555105, "(0.001, 0.0, 0.0, 0.0, 0.001, 0.0, 0.0, 0.0, 0.001)"
1636524448837173413, 795, 1636512753, 522775888, base_link, 0.00132326995373, -0.015894215235, -0.734531669006, 0.678386947181, "(0.005481276661157608, 0.0, 0.0, 0.0, 0.005465068060830858, 0.0, 0.0, 0.0, 0.01699630737275748)", -0.0198771731197, 0.0169336632626, -0.142754499742, "(0.001, 0.0, 0.0, 0.0, 0.001, 0.0, 0.0, 0.0, 0.001)", 1.05528101312, 0.921193104125, -0.511218263933, "(0.001, 0.0, 0.0, 0.0, 0.001, 0.0, 0.0, 0.0, 0.001)"
1636524448855856288, 796, 1636512753, 541666984, base_link, 0.00136735833834, -0.015723658495, -0.734940760288, 0.67794762022, "(0.005481276661157608, 0.0, 0.0, 0.0, 0.005465068060830858, 0.0, 0.0, 0.0, 0.01699630737275748)", -0.0145388550455, 0.0188244352471, -0.0949459270451, "(0.001, 0.0, 0.0, 0.0, 0.001, 0.0, 0.0, 0.0, 0.001)", 0.356102953256, 0.240741233888, 0.187271592464, "(0.001, 0.0, 0.0, 0.0, 0.001, 0.0, 0.0, 0.0, 0.001)"
1636524448875910461, 797, 1636512753, 561511039, base_link, 0.00147983913753, -0.0155451386126, -0.735331345568, 0.67752783778, "(0.005481276661157608, 0.0, 0.0, 0.0, 0.005465068060830858, 0.0, 0.0, 0.0, 0.01699630737275748)", -0.0184144324487, 0.0373115007916, -0.14089886719, "(0.001, 0.0, 0.0, 0.0, 0.001, 0.0, 0.0, 0.0, 0.001)", 1.39865660082, 0.775206923982, -0.503486541089, "(0.001, 0.0, 0.0, 0.0, 0.001, 0.0, 0.0, 0.0, 0.001)"
1636524448896518466, 798, 1636512753, 582354068, base_link, 0.00156983592618, -0.0153263465236, -0.735731712173, 0.677097841098, "(0.005481276661157608, 0.0, 0.0, 0.0, 0.005465068060830858, 0.0, 0.0, 0.0, 0.01699630737275748)", -0.0143051513732, 0.031145889143, -0.09343120077, "(0.001, 0.0, 0.0, 0.0, 0.001, 0.0, 0.0, 0.0, 0.001)", 0.238033294014, 0.544858686421, 0.147717094335, "(0.001, 0.0, 0.0, 0.0, 0.001, 0.0, 0.0, 0.0, 0.001)"
1636524448916110783, 799, 1636512753, 601932048, base_link, 0.00172479713458, -0.0150894111145, -0.736106072869, 0.67669578411, "(0.005481276661157608, 0.0, 0.0, 0.0, 0.005465068060830858, 0.0, 0.0, 0.0, 0.01699630737275748)", -0.0201689793774, 0.0550403649814, -0.136650176397, "(0.001, 0.0, 0.0, 0.0, 0.001, 0.0, 0.0, 0.0, 0.001)", 1.46360022739, 0.513450431073, -0.582147842533, "(0.001, 0.0, 0.0, 0.0, 0.001, 0.0, 0.0, 0.0, 0.001)"
1636524448936204959, 800, 1636512753, 622045040, base_link, 0.00187235066858, -0.0148671898727, -0.736491145314, 0.676281194358, "(0.005481276661157608, 0.0, 0.0, 0.0, 0.005465068060830858, 0.0, 0.0, 0.0, 0.01699630737275748)", -0.0114094387392, 0.03990329383, -0.090119820641, "(0.001, 0.0, 0.0, 0.0, 0.001, 0.0, 0.0, 0.0, 0.001)", 0.201957714621, 0.413098536773, -0.0563853139794, "(0.001, 0.0, 0.0, 0.0, 0.001, 0.0, 0.0, 0.0, 0.001)"
1636524448955611613, 801, 1636512753, 641345977, base_link, 0.00204307594831, -0.0146497331563, -0.736872186497, 0.675870247848, "(0.005481276661157608, 0.0, 0.0, 0.0, 0.005465068060830858, 0.0, 0.0, 0.0, 0.01699630737275748)", -0.0146358685919, 0.0617863323499, -0.134937570092, "(0.001, 0.0, 0.0, 0.0, 0.001, 0.0, 0.0, 0.0, 0.001)", 0.486812271817, 0.378929528958, -0.279598317871, "(0.001, 0.0, 0.0, 0.0, 0.001, 0.0, 0.0, 0.0, 0.001)"
1636524448976518391, 802, 1636512753, 661849975, base_link, 0.00217158306248, -0.0144738289204, -0.737272724875, 0.675436689601, "(0.005481276661157608, 0.0, 0.0, 0.0, 0.005465068060830858, 0.0, 0.0, 0.0, 0.01699630737275748)", -0.00798222857687, 0.0363754369168, -0.0931269826295, "(0.001, 0.0, 0.0, 0.0, 0.001, 0.0, 0.0, 0.0, 0.001)", -0.268653866102, 0.343708377236, -0.155871178074, "(0.001, 0.0, 0.0, 0.0, 0.001, 0.0, 0.0, 0.0, 0.001)"
1636524448996057497, 803, 1636512753, 681866884, base_link, 0.00232430334737, -0.0143154753323, -0.737675747973, 0.674999374542, "(0.005481276661157608, 0.0, 0.0, 0.0, 0.005465068060830858, 0.0, 0.0, 0.0, 0.01699630737275748)", -0.0074535955548, 0.0509017402335, -0.141047541112, "(0.001, 0.0, 0.0, 0.0, 0.001, 0.0, 0.0, 0.0, 0.001)", -0.0602512872092, 0.632628039024, -0.189956068862, "(0.001, 0.0, 0.0, 0.0, 0.001, 0.0, 0.0, 0.0, 0.001)"
1636524449015863521, 804, 1636512753, 701656103, base_link, 0.00245858550309, -0.014176114006, -0.738106529458, 0.674530758617, "(0.005481276661157608, 0.0, 0.0, 0.0, 0.005465068060830858, 0.0, 0.0, 0.0, 0.01699630737275748)", -0.00382641073292, 0.031122461699, -0.0994960559303, "(0.001, 0.0, 0.0, 0.0, 0.001, 0.0, 0.0, 0.0, 0.001)", -0.0568145184581, 0.156369920356, -0.484615750233, "(0.001, 0.0, 0.0, 0.0, 0.001, 0.0, 0.0, 0.0, 0.001)"
1636524449035572136, 805, 1636512753, 721411943, base_link, 0.00263739903213, -0.0140918933162, -0.738533819627, 0.674063988014, "(0.005481276661157608, 0.0, 0.0, 0.0, 0.005465068060830858, 0.0, 0.0, 0.0, 0.01699630737275748)", 0.00518506048888, 0.0446674832785, -0.150796363014, "(0.001, 0.0, 0.0, 0.0, 0.001, 0.0, 0.0, 0.0, 0.001)", -0.489344585164, 0.209178299159, -0.303058395153, "(0.001, 0.0, 0.0, 0.0, 0.001, 0.0, 0.0, 0.0, 0.001)"
1636524449056361935, 806, 1636512753, 742114067, base_link, 0.00280766907195, -0.0140333130196, -0.738981888821, 0.673573270784, "(0.005481276661157608, 0.0, 0.0, 0.0, 0.005465068060830858, 0.0, 0.0, 0.0, 0.01699630737275748)", 0.00777120830809, 0.0259616564127, -0.104725546922, "(0.001, 0.0, 0.0, 0.0, 0.001, 0.0, 0.0, 0.0, 0.001)", 0.183504688893, 0.169540124823, -0.497883522557, "(0.001, 0.0, 0.0, 0.0, 0.001, 0.0, 0.0, 0.0, 0.001)"
1636524449076323979, 807, 1636512753, 761531114, base_link, 0.00300258653974, -0.0139841193664, -0.739428808607, 0.673082807596, "(0.005481276661157608, 0.0, 0.0, 0.0, 0.005465068060830858, 0.0, 0.0, 0.0, 0.01699630737275748)", 0.017829781085, 0.0400967961442, -0.157830690445, "(0.001, 0.0, 0.0, 0.0, 0.001, 0.0, 0.0, 0.0, 0.001)", -0.600741585048, 0.357629533462, 0.0115235068143, "(0.001, 0.0, 0.0, 0.0, 0.001, 0.0, 0.0, 0.0, 0.001)"
1636524449096025701, 808, 1636512753, 781845092, base_link, 0.00319163722606, -0.0139347445767, -0.73987815138, 0.672588995938, "(0.005481276661157608, 0.0, 0.0, 0.0, 0.005465068060830858, 0.0, 0.0, 0.0, 0.01699630737275748)", 0.0132646345674, 0.0251866593691, -0.107552348271, "(0.001, 0.0, 0.0, 0.0, 0.001, 0.0, 0.0, 0.0, 0.001)", 0.541633142696, 0.2824872732, -0.413982651404, "(0.001, 0.0, 0.0, 0.0, 0.001, 0.0, 0.0, 0.0, 0.001)"
1636524449117477452, 809, 1636512753, 803334951, base_link, 0.00339296499684, -0.0138986013597, -0.740317702296, 0.672104914679, "(0.005481276661157608, 0.0, 0.0, 0.0, 0.005465068060830858, 0.0, 0.0, 0.0, 0.01699630737275748)", 0.0231476902041, 0.0400343251653, -0.158455247814, "(0.001, 0.0, 0.0, 0.0, 0.001, 0.0, 0.0, 0.0, 0.001)", -0.329538634343, 0.303691688753, 0.296714077514, "(0.001, 0.0, 0.0, 0.0, 0.001, 0.0, 0.0, 0.0, 0.001)"
1636524449136153550, 810, 1636512753, 822025060, base_link, 0.0035655446874, -0.01385507097, -0.740744204079, 0.671634832348, "(0.005481276661157608, 0.0, 0.0, 0.0, 0.005465068060830858, 0.0, 0.0, 0.0, 0.01699630737275748)", 0.0142414734093, 0.0239309386308, -0.10383065688, "(0.001, 0.0, 0.0, 0.0, 0.001, 0.0, 0.0, 0.0, 0.001)", 0.367243892361, 0.57921772415, -0.158122603124, "(0.001, 0.0, 0.0, 0.0, 0.001, 0.0, 0.0, 0.0, 0.001)"
1636524449155479350, 811, 1636512753, 841300010, base_link, 0.00369360886934, -0.0138375714579, -0.741169762583, 0.67116485449, "(0.005481276661157608, 0.0, 0.0, 0.0, 0.005465068060830858, 0.0, 0.0, 0.0, 0.01699630737275748)", 0.019533112487, 0.0296061360984, -0.152977251132, "(0.001, 0.0, 0.0, 0.0, 0.001, 0.0, 0.0, 0.0, 0.001)", -0.50107022634, 0.757055111632, 0.619625385291, "(0.001, 0.0, 0.0, 0.0, 0.001, 0.0, 0.0, 0.0, 0.001)"
1636524449176510968, 812, 1636512753, 862291097, base_link, 0.00378893003411, -0.0138402938842, -0.741573294674, 0.670718375252, "(0.005481276661157608, 0.0, 0.0, 0.0, 0.005465068060830858, 0.0, 0.0, 0.0, 0.01699630737275748)", 0.0110828691577, 0.0127781487408, -0.0989848400286, "(0.001, 0.0, 0.0, 0.0, 0.001, 0.0, 0.0, 0.0, 0.001)", 0.0540497687811, 0.74302793538, 0.212604884282, "(0.001, 0.0, 0.0, 0.0, 0.001, 0.0, 0.0, 0.0, 0.001)"
1636524449195259160, 813, 1636512753, 881114006, base_link, 0.00377467356098, -0.0138512861024, -0.741989311905, 0.670257976253, "(0.005481276661157608, 0.0, 0.0, 0.0, 0.005465068060830858, 0.0, 0.0, 0.0, 0.01699630737275748)", 0.00658830271213, 0.00498126026654, -0.147594306585, "(0.001, 0.0, 0.0, 0.0, 0.001, 0.0, 0.0, 0.0, 0.001)", -0.834703836654, 0.935296944202, 0.665948239246, "(0.001, 0.0, 0.0, 0.0, 0.001, 0.0, 0.0, 0.0, 0.001)"
1636524449216862050, 814, 1636512753, 902767896, base_link, 0.00378169541456, -0.0138696101538, -0.742380746103, 0.669823977258, "(0.005481276661157608, 0.0, 0.0, 0.0, 0.005465068060830858, 0.0, 0.0, 0.0, 0.01699630737275748)", 0.00276444536408, -0.00158197461373, -0.0956792850321, "(0.001, 0.0, 0.0, 0.0, 0.001, 0.0, 0.0, 0.0, 0.001)", -0.21674983898, 0.448648879004, 0.348361982097, "(0.001, 0.0, 0.0, 0.0, 0.001, 0.0, 0.0, 0.0, 0.001)"
1636524449237461721, 815, 1636512753, 922029972, base_link, 0.00369637021583, -0.0138927757219, -0.742789463773, 0.669370704571, "(0.005481276661157608, 0.0, 0.0, 0.0, 0.005465068060830858, 0.0, 0.0, 0.0, 0.01699630737275748)", -0.00352340238022, -0.0128084016039, -0.144547737934, "(0.001, 0.0, 0.0, 0.0, 0.001, 0.0, 0.0, 0.0, 0.001)", -0.535287544759, 0.846101079997, 0.492405358636, "(0.001, 0.0, 0.0, 0.0, 0.001, 0.0, 0.0, 0.0, 0.001)"
1636524449256312466, 816, 1636512753, 942138910, base_link, 0.00360791399489, -0.0139086325862, -0.743193520671, 0.668922210521, "(0.005481276661157608, 0.0, 0.0, 0.0, 0.005465068060830858, 0.0, 0.0, 0.0, 0.01699630737275748)", -0.00606986973479, -0.0122460132769, -0.0959073965172, "(0.001, 0.0, 0.0, 0.0, 0.001, 0.0, 0.0, 0.0, 0.001)", -0.64117564455, 0.408162908513, 0.492502236351, "(0.001, 0.0, 0.0, 0.0, 0.001, 0.0, 0.0, 0.0, 0.001)"
1636524449275974212, 817, 1636512753, 961373090, base_link, 0.0034916997797, -0.0139461599264, -0.743616982126, 0.668451267146, "(0.005481276661157608, 0.0, 0.0, 0.0, 0.005465068060830858, 0.0, 0.0, 0.0, 0.01699630737275748)", -0.0115481551211, -0.0253283367785, -0.148540176064, "(0.001, 0.0, 0.0, 0.0, 0.001, 0.0, 0.0, 0.0, 0.001)", -0.345960270646, 0.540735843565, 0.254979698397, "(0.001, 0.0, 0.0, 0.0, 0.001, 0.0, 0.0, 0.0, 0.001)"
1636524449297005455, 818, 1636512753, 982728958, base_link, 0.00338733521322, -0.0139823809524, -0.744041026448, 0.667979019091, "(0.005481276661157608, 0.0, 0.0, 0.0, 0.005465068060830858, 0.0, 0.0, 0.0, 0.01699630737275748)", -0.00773620901072, -0.0172847921982, -0.0998848011935, "(0.001, 0.0, 0.0, 0.0, 0.001, 0.0, 0.0, 0.0, 0.001)", -0.783006885451, 0.217025608852, 0.288683738069, "(0.001, 0.0, 0.0, 0.0, 0.001, 0.0, 0.0, 0.0, 0.001)"
1636524449315276656, 819, 1636512754, 1207113, base_link, 0.00328063294182, -0.0140487211935, -0.744481773978, 0.66748689807, "(0.005481276661157608, 0.0, 0.0, 0.0, 0.005465068060830858, 0.0, 0.0, 0.0, 0.01699630737275748)", -0.00875768728341, -0.0304822979647, -0.155011652761, "(0.001, 0.0, 0.0, 0.0, 0.001, 0.0, 0.0, 0.0, 0.001)", -0.131178877905, 0.46194309246, -0.284647738847, "(0.001, 0.0, 0.0, 0.0, 0.001, 0.0, 0.0, 0.0, 0.001)"
1636524449336790875, 820, 1636512754, 22653102, base_link, 0.00316705947568, -0.014128097321, -0.744931638362, 0.66698367354, "(0.005481276661157608, 0.0, 0.0, 0.0, 0.005465068060830858, 0.0, 0.0, 0.0, 0.01699630737275748)", -0.00422720169482, -0.0218978336369, -0.105614212844, "(0.001, 0.0, 0.0, 0.0, 0.001, 0.0, 0.0, 0.0, 0.001)", -0.707699586545, 0.254978095816, 0.0748083301819, "(0.001, 0.0, 0.0, 0.0, 0.001, 0.0, 0.0, 0.0, 0.001)"
1636524449356010230, 821, 1636512754, 41838884, base_link, 0.00306149291591, -0.0142431713792, -0.745371090384, 0.666490582792, "(0.005481276661157608, 0.0, 0.0, 0.0, 0.005465068060830858, 0.0, 0.0, 0.0, 0.01699630737275748)", -0.00219741225565, -0.0372053469886, -0.159176518413, "(0.001, 0.0, 0.0, 0.0, 0.001, 0.0, 0.0, 0.0, 0.001)", 0.213368835338, 0.316277169608, -0.622653814327, "(0.001, 0.0, 0.0, 0.0, 0.001, 0.0, 0.0, 0.0, 0.001)"
1636524449376314086, 822, 1636512754, 62180042, base_link, 0.00294189869563, -0.0143893287448, -0.745820449462, 0.665985097142, "(0.005481276661157608, 0.0, 0.0, 0.0, 0.005465068060830858, 0.0, 0.0, 0.0, 0.01699630737275748)", 0.00282034709196, -0.0287063744585, -0.10664516227, "(0.001, 0.0, 0.0, 0.0, 0.001, 0.0, 0.0, 0.0, 0.001)", -0.494708198709, 0.105419919764, -0.16703915116, "(0.001, 0.0, 0.0, 0.0, 0.001, 0.0, 0.0, 0.0, 0.001)"
1636524449395450318, 823, 1636512754, 81325054, base_link, 0.00285177063302, -0.0145653822542, -0.746245513857, 0.665505334383, "(0.005481276661157608, 0.0, 0.0, 0.0, 0.005465068060830858, 0.0, 0.0, 0.0, 0.01699630737275748)", 0.0104673081013, -0.0468056089832, -0.157263538506, "(0.001, 0.0, 0.0, 0.0, 0.001, 0.0, 0.0, 0.0, 0.001)", 0.735220913383, 0.391084980186, -0.849379978235, "(0.001, 0.0, 0.0, 0.0, 0.001, 0.0, 0.0, 0.0, 0.001)"
1636524449416525560, 824, 1636512754, 102402925, base_link, 0.00272938988845, -0.0147543632542, -0.746680460828, 0.665013645434, "(0.005481276661157608, 0.0, 0.0, 0.0, 0.005465068060830858, 0.0, 0.0, 0.0, 0.01699630737275748)", 0.00883529661246, -0.0336704519117, -0.103849383575, "(0.001, 0.0, 0.0, 0.0, 0.001, 0.0, 0.0, 0.0, 0.001)", 0.020163437779, 0.329278659987, -0.380254842662, "(0.001, 0.0, 0.0, 0.0, 0.001, 0.0, 0.0, 0.0, 0.001)"
1636524449435734480, 825, 1636512754, 121587038, base_link, 0.00267518516151, -0.0149446741662, -0.747095403395, 0.664543420947, "(0.005481276661157608, 0.0, 0.0, 0.0, 0.005465068060830858, 0.0, 0.0, 0.0, 0.01699630737275748)", 0.0190792761463, -0.0476760789827, -0.152826149208, "(0.001, 0.0, 0.0, 0.0, 0.001, 0.0, 0.0, 0.0, 0.001)", 0.964874105764, 0.232438469836, -0.592063858231, "(0.001, 0.0, 0.0, 0.0, 0.001, 0.0, 0.0, 0.0, 0.001)"
1636524449456153695, 826, 1636512754, 141994953, base_link, 0.00260743468957, -0.0151479446697, -0.747518383438, 0.664063255631, "(0.005481276661157608, 0.0, 0.0, 0.0, 0.005465068060830858, 0.0, 0.0, 0.0, 0.01699630737275748)", 0.015495951864, -0.0313512425006, -0.101856673694, "(0.001, 0.0, 0.0, 0.0, 0.001, 0.0, 0.0, 0.0, 0.001)", 0.596674391143, 0.271052813222, -0.538002323506, "(0.001, 0.0, 0.0, 0.0, 0.001, 0.0, 0.0, 0.0, 0.001)"
1636524449477104987, 827, 1636512754, 162719011, base_link, 0.00259661156413, -0.0153457498249, -0.747915888253, 0.663611022866, "(0.005481276661157608, 0.0, 0.0, 0.0, 0.005465068060830858, 0.0, 0.0, 0.0, 0.01699630737275748)", 0.0292024339523, -0.0407018521975, -0.147766442735, "(0.001, 0.0, 0.0, 0.0, 0.001, 0.0, 0.0, 0.0, 0.001)", 0.751676329681, 0.334363559512, -0.312321410926, "(0.001, 0.0, 0.0, 0.0, 0.001, 0.0, 0.0, 0.0, 0.001)"
1636524449495849022, 828, 1636512754, 181695938, base_link, 0.00258691384868, -0.0155184694009, -0.748330099779, 0.663139914911, "(0.005481276661157608, 0.0, 0.0, 0.0, 0.005465068060830858, 0.0, 0.0, 0.0, 0.01699630737275748)", 0.0191256458624, -0.0239755593594, -0.0996508514754, "(0.001, 0.0, 0.0, 0.0, 0.001, 0.0, 0.0, 0.0, 0.001)", 1.20816014739, 0.306774923623, -0.460255618736, "(0.001, 0.0, 0.0, 0.0, 0.001, 0.0, 0.0, 0.0, 0.001)"
1636524449515539316, 829, 1636512754, 201293945, base_link, 0.00265199514094, -0.0156619850862, -0.748730820393, 0.662683806758, "(0.005481276661157608, 0.0, 0.0, 0.0, 0.005465068060830858, 0.0, 0.0, 0.0, 0.01699630737275748)", 0.0327273481649, -0.0229419260277, -0.146297797131, "(0.001, 0.0, 0.0, 0.0, 0.001, 0.0, 0.0, 0.0, 0.001)", 0.700611514225, 0.369719674923, 0.00386946625727, "(0.001, 0.0, 0.0, 0.0, 0.001, 0.0, 0.0, 0.0, 0.001)"
1636524449536237326, 830, 1636512754, 222094058, base_link, 0.00272423260911, -0.0157985546828, -0.749148332965, 0.662208244771, "(0.005481276661157608, 0.0, 0.0, 0.0, 0.005465068060830858, 0.0, 0.0, 0.0, 0.01699630737275748)", 0.0224354584775, -0.0107616973655, -0.100668089032, "(0.001, 0.0, 0.0, 0.0, 0.001, 0.0, 0.0, 0.0, 0.001)", 1.1486818438, 0.13031412808, -0.351956220083, "(0.001, 0.0, 0.0, 0.0, 0.001, 0.0, 0.0, 0.0, 0.001)"
1636524449555329181, 831, 1636512754, 241190910, base_link, 0.00283521316107, -0.0159027264776, -0.749571372928, 0.661726394928, "(0.005481276661157608, 0.0, 0.0, 0.0, 0.005465068060830858, 0.0, 0.0, 0.0, 0.01699630737275748)", 0.0362602163825, -0.00560840065053, -0.15140185166, "(0.001, 0.0, 0.0, 0.0, 0.001, 0.0, 0.0, 0.0, 0.001)", 0.42964065153, 0.577490620913, 0.422646820301, "(0.001, 0.0, 0.0, 0.0, 0.001, 0.0, 0.0, 0.0, 0.001)"
1636524449578947339, 832, 1636512754, 264144897, base_link, 0.0029407520331, -0.0159771352165, -0.749992107546, 0.661247247061, "(0.005481276661157608, 0.0, 0.0, 0.0, 0.005465068060830858, 0.0, 0.0, 0.0, 0.01699630737275748)", 0.0204501605103, -2.05799885068e-05, -0.102846992144, "(0.001, 0.0, 0.0, 0.0, 0.001, 0.0, 0.0, 0.0, 0.001)", 0.911577458229, 0.601707466627, -0.0246123579344, "(0.001, 0.0, 0.0, 0.0, 0.001, 0.0, 0.0, 0.0, 0.001)"
1636524449595644888, 833, 1636512754, 281492948, base_link, 0.00301069685223, -0.0160413649976, -0.750445557108, 0.660730713779, "(0.005481276661157608, 0.0, 0.0, 0.0, 0.005465068060830858, 0.0, 0.0, 0.0, 0.01699630737275748)", 0.0260665168853, 0.000565662568303, -0.158864509629, "(0.001, 0.0, 0.0, 0.0, 0.001, 0.0, 0.0, 0.0, 0.001)", -0.126730307698, 0.656723273915, 0.599764305053, "(0.001, 0.0, 0.0, 0.0, 0.001, 0.0, 0.0, 0.0, 0.001)"
1636524449619998792, 834, 1636512754, 305804967, base_link, 0.00309066857276, -0.0160852498829, -0.750882474884, 0.660232702474, "(0.005481276661157608, 0.0, 0.0, 0.0, 0.005465068060830858, 0.0, 0.0, 0.0, 0.01699630737275748)", 0.0142907562859, 0.00164337602254, -0.106949542787, "(0.001, 0.0, 0.0, 0.0, 0.001, 0.0, 0.0, 0.0, 0.001)", 0.538725789397, 0.505888939129, 0.274180369092, "(0.001, 0.0, 0.0, 0.0, 0.001, 0.0, 0.0, 0.0, 0.001)"
1636524449637978233, 835, 1636512754, 323827028, base_link, 0.00311154379994, -0.0161051604319, -0.751351903672, 0.659697854287, "(0.007013948036452222, 0.0, 0.0, 0.0, 0.0069975618924314475, 0.0, 0.0, 0.0, 0.01868258524009847)", 0.0137462825048, 0.000697685282845, -0.165501091871, "(0.001, 0.0, 0.0, 0.0, 0.001, 0.0, 0.0, 0.0, 0.001)", -0.0527637129401, 0.821745194878, 0.511320266546, "(0.001, 0.0, 0.0, 0.0, 0.001, 0.0, 0.0, 0.0, 0.001)"
1636524449657090428, 836, 1636512754, 342605113, base_link, 0.00313759487586, -0.0161229355156, -0.751805618805, 0.659180186278, "(0.006034392942345923, 0.0, 0.0, 0.0, 0.00601239194600206, 0.0, 0.0, 0.0, 0.018619596808378214)", 0.00489199543376, -0.000499653565617, -0.110326408363, "(0.001, 0.0, 0.0, 0.0, 0.001, 0.0, 0.0, 0.0, 0.001)", 0.0110109612854, 0.695038873384, 0.443206589362, "(0.001, 0.0, 0.0, 0.0, 0.001, 0.0, 0.0, 0.0, 0.001)"
1636524449676735801, 837, 1636512754, 361555099, base_link, 0.00311130148187, -0.016106765913, -0.752286860099, 0.658631438679, "(0.006034392942345923, 0.0, 0.0, 0.0, 0.00601239194600206, 0.0, 0.0, 0.0, 0.018619596808378214)", -0.00126697125975, -0.00403495574893, -0.171241031138, "(0.001, 0.0, 0.0, 0.0, 0.001, 0.0, 0.0, 0.0, 0.001)", 0.304300654643, 0.960239168186, 0.403285625401, "(0.001, 0.0, 0.0, 0.0, 0.001, 0.0, 0.0, 0.0, 0.001)"
1636524449696855104, 838, 1636512754, 381884098, base_link, 0.00310768544237, -0.0160851265397, -0.752749657613, 0.658103004064, "(0.006034392942345923, 0.0, 0.0, 0.0, 0.00601239194600206, 0.0, 0.0, 0.0, 0.018619596808378214)", -0.00320681268262, -0.000715456881841, -0.112790562037, "(0.001, 0.0, 0.0, 0.0, 0.001, 0.0, 0.0, 0.0, 0.001)", -0.0557097915639, 0.483614838749, 0.444313915931, "(0.001, 0.0, 0.0, 0.0, 0.001, 0.0, 0.0, 0.0, 0.001)"
1636524449715458383, 839, 1636512754, 401263952, base_link, 0.00307822340412, -0.0160361279096, -0.753205549247, 0.657582517807, "(0.006034392942345923, 0.0, 0.0, 0.0, 0.00601239194600206, 0.0, 0.0, 0.0, 0.018619596808378214)", -0.0105883715068, -0.00185074495538, -0.168083640536, "(0.001, 0.0, 0.0, 0.0, 0.001, 0.0, 0.0, 0.0, 0.001)", 0.67734470721, 0.901687666328, 0.0433173864878, "(0.001, 0.0, 0.0, 0.0, 0.001, 0.0, 0.0, 0.0, 0.001)"
1636524449735802166, 840, 1636512754, 421684026, base_link, 0.00305759345666, -0.0159817360486, -0.753660592666, 0.657062361041, "(0.006034392942345923, 0.0, 0.0, 0.0, 0.00601239194600206, 0.0, 0.0, 0.0, 0.018619596808378214)", -0.00835886463102, 0.000990080904775, -0.110277410645, "(0.001, 0.0, 0.0, 0.0, 0.001, 0.0, 0.0, 0.0, 0.001)", -0.220376579637, 0.409653915795, 0.247857004519, "(0.001, 0.0, 0.0, 0.0, 0.001, 0.0, 0.0, 0.0, 0.001)"
1636524449755520244, 841, 1636512754, 441354036, base_link, 0.00307195657917, -0.0159192303797, -0.754101662106, 0.656557556042, "(0.006034392942345923, 0.0, 0.0, 0.0, 0.00601239194600206, 0.0, 0.0, 0.0, 0.018619596808378214)", -0.0128687804454, 0.00453110816379, -0.163962351004, "(0.001, 0.0, 0.0, 0.0, 0.001, 0.0, 0.0, 0.0, 0.001)", 0.781872451902, 0.552668642496, -0.309797232021, "(0.001, 0.0, 0.0, 0.0, 0.001, 0.0, 0.0, 0.0, 0.001)"
1636524449777102707, 842, 1636512754, 462873935, base_link, 0.00305662765511, -0.0158608191958, -0.75455297568, 0.656040317614, "(0.006034392942345923, 0.0, 0.0, 0.0, 0.00601239194600206, 0.0, 0.0, 0.0, 0.018619596808378214)", -0.00780360726317, 0.00405747474483, -0.108567994289, "(0.001, 0.0, 0.0, 0.0, 0.001, 0.0, 0.0, 0.0, 0.001)", -0.357441495316, 0.430731653763, 0.144737490864, "(0.001, 0.0, 0.0, 0.0, 0.001, 0.0, 0.0, 0.0, 0.001)"
1636524449795913743, 843, 1636512754, 481770038, base_link, 0.00304174534518, -0.0158143561033, -0.75499212659, 0.655536072779, "(0.006034392942345923, 0.0, 0.0, 0.0, 0.00601239194600206, 0.0, 0.0, 0.0, 0.018619596808378214)", -0.0129961144023, 0.00318584949593, -0.162318037947, "(0.001, 0.0, 0.0, 0.0, 0.001, 0.0, 0.0, 0.0, 0.001)", -0.00495556871138, 0.510433640023, -0.317255881415, "(0.001, 0.0, 0.0, 0.0, 0.001, 0.0, 0.0, 0.0, 0.001)"
1636524449816467751, 844, 1636512754, 502351045, base_link, 0.00297780451809, -0.0158248122627, -0.755446154758, 0.655012835949, "(0.006034392942345923, 0.0, 0.0, 0.0, 0.00601239194600206, 0.0, 0.0, 0.0, 0.018619596808378214)", -0.00676397398637, -0.00551172965489, -0.109080926712, "(0.001, 0.0, 0.0, 0.0, 0.001, 0.0, 0.0, 0.0, 0.001)", -0.538307130086, 0.296423599832, -0.073334348721, "(0.001, 0.0, 0.0, 0.0, 0.001, 0.0, 0.0, 0.0, 0.001)"
1636524449836979958, 845, 1636512754, 522764921, base_link, 0.00289392311958, -0.0158463601743, -0.755888141351, 0.654502586582, "(0.006034392942345923, 0.0, 0.0, 0.0, 0.00601239194600206, 0.0, 0.0, 0.0, 0.018619596808378214)", -0.00994328649395, -0.0161975901884, -0.162507086466, "(0.001, 0.0, 0.0, 0.0, 0.001, 0.0, 0.0, 0.0, 0.001)", -0.380486777983, 0.593076334753, -0.127443692101, "(0.001, 0.0, 0.0, 0.0, 0.001, 0.0, 0.0, 0.0, 0.001)"
1636524449856134286, 846, 1636512754, 541970968, base_link, 0.00277563435754, -0.0158874425629, -0.756345864389, 0.653973102233, "(0.006034392942345923, 0.0, 0.0, 0.0, 0.00601239194600206, 0.0, 0.0, 0.0, 0.018619596808378214)", -0.0075328803488, -0.0173824422074, -0.11062818548, "(0.001, 0.0, 0.0, 0.0, 0.001, 0.0, 0.0, 0.0, 0.001)", -0.217187805524, 0.44353989783, -0.270098230029, "(0.001, 0.0, 0.0, 0.0, 0.001, 0.0, 0.0, 0.0, 0.001)"
1636524449876415429, 847, 1636512754, 561883926, base_link, 0.0026175474565, -0.0159759371626, -0.756790844387, 0.65345660585, "(0.006034392942345923, 0.0, 0.0, 0.0, 0.00601239194600206, 0.0, 0.0, 0.0, 0.018619596808378214)", -0.0103397506028, -0.0371602532695, -0.163505846086, "(0.001, 0.0, 0.0, 0.0, 0.001, 0.0, 0.0, 0.0, 0.001)", -0.647553275393, 0.715132160171, 0.0917169440511, "(0.001, 0.0, 0.0, 0.0, 0.001, 0.0, 0.0, 0.0, 0.001)"
1636524449896966927, 848, 1636512754, 582330942, base_link, 0.0026175474565, -0.0159759371626, -0.756790844387, 0.65345660585, "(0.006034392942345923, 0.0, 0.0, 0.0, 0.00601239194600206, 0.0, 0.0, 0.0, 0.018619596808378214)", -0.00927414530451, -0.0315589875592, -0.112967152539, "(0.001, 0.0, 0.0, 0.0, 0.001, 0.0, 0.0, 0.0, 0.001)", 0.153920525838, 0.298195928527, -0.312503690868, "(0.001, 0.0, 0.0, 0.0, 0.001, 0.0, 0.0, 0.0, 0.001)"
1636524449915376757, 849, 1636512754, 601181030, base_link, 0.00225976421143, -0.0161848343936, -0.757731816952, 0.652361432168, "(0.006034392942345923, 0.0, 0.0, 0.0, 0.00601239194600206, 0.0, 0.0, 0.0, 0.018619596808378214)", -0.00880895054344, -0.0496812102281, -0.170110576186, "(0.001, 0.0, 0.0, 0.0, 0.001, 0.0, 0.0, 0.0, 0.001)", -0.563840406888, 0.397825779673, -0.00763664848548, "(0.001, 0.0, 0.0, 0.0, 0.001, 0.0, 0.0, 0.0, 0.001)"
1636524449936301391, 850, 1636512754, 622106075, base_link, 0.00207632439717, -0.0162709872996, -0.758210423247, 0.651803573118, "(0.006034392942345923, 0.0, 0.0, 0.0, 0.00601239194600206, 0.0, 0.0, 0.0, 0.018619596808378214)", -0.00819374267864, -0.0343522440761, -0.116832594099, "(0.001, 0.0, 0.0, 0.0, 0.001, 0.0, 0.0, 0.0, 0.001)", 0.427894684938, 0.464637308906, -0.26739623308, "(0.001, 0.0, 0.0, 0.0, 0.001, 0.0, 0.0, 0.0, 0.001)"
1636524449956682182, 851, 1636512754, 642479896, base_link, 0.00189189384785, -0.0163790298109, -0.75871499726, 0.651214020927, "(0.006034392942345923, 0.0, 0.0, 0.0, 0.00601239194600206, 0.0, 0.0, 0.0, 0.018619596808378214)", -0.0109276443255, -0.0516189431779, -0.179698268802, "(0.001, 0.0, 0.0, 0.0, 0.001, 0.0, 0.0, 0.0, 0.001)", -0.475822707397, 0.334712365818, -0.0175052749464, "(0.001, 0.0, 0.0, 0.0, 0.001, 0.0, 0.0, 0.0, 0.001)"
1636524449976373181, 852, 1636512754, 662096023, base_link, 0.00174057395756, -0.0165176545307, -0.759207062447, 0.650637205992, "(0.006034392942345923, 0.0, 0.0, 0.0, 0.00601239194600206, 0.0, 0.0, 0.0, 0.018619596808378214)", -0.00323896771018, -0.0356489211357, -0.121520129104, "(0.001, 0.0, 0.0, 0.0, 0.001, 0.0, 0.0, 0.0, 0.001)", 0.525188902952, 0.356575717488, -0.273005147252, "(0.001, 0.0, 0.0, 0.0, 0.001, 0.0, 0.0, 0.0, 0.001)"
1636524449995831996, 853, 1636512754, 681744098, base_link, 0.00156149549144, -0.0166248916248, -0.759733645493, 0.650019970937, "(0.006034392942345923, 0.0, 0.0, 0.0, 0.00601239194600206, 0.0, 0.0, 0.0, 0.018619596808378214)", -0.00685219927568, -0.0532677570676, -0.187684170908, "(0.001, 0.0, 0.0, 0.0, 0.001, 0.0, 0.0, 0.0, 0.001)", 0.195661351926, 0.61663076033, 0.106139893501, "(0.001, 0.0, 0.0, 0.0, 0.001, 0.0, 0.0, 0.0, 0.001)"
1636524450016750402, 854, 1636512754, 702611923, base_link, 0.00143319601979, -0.0167180360834, -0.760236934374, 0.649429177688, "(0.006034392942345923, 0.0, 0.0, 0.0, 0.00601239194600206, 0.0, 0.0, 0.0, 0.018619596808378214)", -0.00394728633245, -0.030352924659, -0.124791765711, "(0.001, 0.0, 0.0, 0.0, 0.001, 0.0, 0.0, 0.0, 0.001)", 0.715829872291, 0.316149732968, -0.0572379912079, "(0.001, 0.0, 0.0, 0.0, 0.001, 0.0, 0.0, 0.0, 0.001)"
1636524450035963505, 855, 1636512754, 721751928, base_link, 0.00129239320925, -0.0168063332415, -0.7607651483, 0.648808343053, "(0.006034392942345923, 0.0, 0.0, 0.0, 0.00601239194600206, 0.0, 0.0, 0.0, 0.018619596808378214)", -0.00681207058871, -0.0441457353953, -0.191397243002, "(0.001, 0.0, 0.0, 0.0, 0.001, 0.0, 0.0, 0.0, 0.001)", 0.948770041303, 0.736193188282, -0.103217991719, "(0.001, 0.0, 0.0, 0.0, 0.001, 0.0, 0.0, 0.0, 0.001)"
1636524450057976755, 856, 1636512754, 742191076, base_link, 0.00129239320925, -0.0168063332415, -0.7607651483, 0.648808343053, "(0.006034392942345923, 0.0, 0.0, 0.0, 0.00601239194600206, 0.0, 0.0, 0.0, 0.018619596808378214)", -0.00541454644918, -0.0254782326562, -0.126608668475, "(0.001, 0.0, 0.0, 0.0, 0.001, 0.0, 0.0, 0.0, 0.001)", 0.417252573429, 0.367251726489, 0.146863456511, "(0.001, 0.0, 0.0, 0.0, 0.001, 0.0, 0.0, 0.0, 0.001)"
1636524450075735733, 857, 1636512754, 761288881, base_link, 0.00107032700889, -0.0169198526009, -0.761801834011, 0.647588247797, "(0.006034392942345923, 0.0, 0.0, 0.0, 0.00601239194600206, 0.0, 0.0, 0.0, 0.018619596808378214)", -0.00819469645526, -0.0346423726831, -0.192970758379, "(0.001, 0.0, 0.0, 0.0, 0.001, 0.0, 0.0, 0.0, 0.001)", 1.67588934442, 0.829364194985, -0.16879408675, "(0.001, 0.0, 0.0, 0.0, 0.001, 0.0, 0.0, 0.0, 0.001)"
1636524450096203539, 858, 1636512754, 782001018, base_link, 0.000958324551652, -0.016961834122, -0.762323633782, 0.646972994162, "(0.006034392942345923, 0.0, 0.0, 0.0, 0.00601239194600206, 0.0, 0.0, 0.0, 0.018619596808378214)", -0.0067331938581, -0.0194198203378, -0.127612671076, "(0.001, 0.0, 0.0, 0.0, 0.001, 0.0, 0.0, 0.0, 0.001)", 0.17232301301, 0.395250823483, 0.21970322143, "(0.001, 0.0, 0.0, 0.0, 0.001, 0.0, 0.0, 0.0, 0.001)"
1636524450116897977, 859, 1636512754, 802757978, base_link, 0.000871444898829, -0.0169875069899, -0.762849939144, 0.646351789306, "(0.006034392942345923, 0.0, 0.0, 0.0, 0.00601239194600206, 0.0, 0.0, 0.0, 0.018619596808378214)", -0.0115196788352, -0.0275724462772, -0.194587237763, "(0.001, 0.0, 0.0, 0.0, 0.001, 0.0, 0.0, 0.0, 0.001)", 1.41052175637, 0.654122776416, -0.272256603994, "(0.001, 0.0, 0.0, 0.0, 0.001, 0.0, 0.0, 0.0, 0.001)"
1636524450136499610, 860, 1636512754, 822309017, base_link, 0.00078274715475, -0.017001100894, -0.763383007929, 0.645721869755, "(0.006034392942345923, 0.0, 0.0, 0.0, 0.00601239194600206, 0.0, 0.0, 0.0, 0.018619596808378214)", -0.00747526277248, -0.0152794047961, -0.130304170677, "(0.001, 0.0, 0.0, 0.0, 0.001, 0.0, 0.0, 0.0, 0.001)", 0.296746464263, 0.432780440841, 0.196393221685, "(0.001, 0.0, 0.0, 0.0, 0.001, 0.0, 0.0, 0.0, 0.001)"
1636524450155754589, 861, 1636512754, 841361045, base_link, 0.00076247791406, -0.0170149052069, -0.763904652837, 0.645104327223, "(0.006034392942345923, 0.0, 0.0, 0.0, 0.00601239194600206, 0.0, 0.0, 0.0, 0.018619596808378214)", -0.00776574892154, -0.0157553359023, -0.195008431325, "(0.001, 0.0, 0.0, 0.0, 0.001, 0.0, 0.0, 0.0, 0.001)", 1.20819516127, 0.168475319329, -0.258990326497, "(0.001, 0.0, 0.0, 0.0, 0.001, 0.0, 0.0, 0.0, 0.001)"
1636524450175992459, 862, 1636512754, 861511945, base_link, 0.00076247791406, -0.0170149052069, -0.763904652837, 0.645104327223, "(0.006034392942345923, 0.0, 0.0, 0.0, 0.00601239194600206, 0.0, 0.0, 0.0, 0.018619596808378214)", -0.00249478536557, -0.00702897996414, -0.133815871265, "(0.001, 0.0, 0.0, 0.0, 0.001, 0.0, 0.0, 0.0, 0.001)", 0.386993984335, 0.335638929401, -0.081643944094, "(0.001, 0.0, 0.0, 0.0, 0.001, 0.0, 0.0, 0.0, 0.001)"
1636524450195290435, 863, 1636512754, 881145000, base_link, 0.000773385307893, -0.0170246520241, -0.765022369727, 0.643778173687, "(0.006034392942345923, 0.0, 0.0, 0.0, 0.00601239194600206, 0.0, 0.0, 0.0, 0.018619596808378214)", 0.000361748377982, -0.00374544979954, -0.205870788068, "(0.001, 0.0, 0.0, 0.0, 0.001, 0.0, 0.0, 0.0, 0.001)", 0.204960952098, 0.394371098562, -0.0762841836375, "(0.001, 0.0, 0.0, 0.0, 0.001, 0.0, 0.0, 0.0, 0.001)"
1636524450217038253, 864, 1636512754, 902867078, base_link, 0.000836081306321, -0.0170383692611, -0.765613432503, 0.64307469777, "(0.006034392942345923, 0.0, 0.0, 0.0, 0.00601239194600206, 0.0, 0.0, 0.0, 0.018619596808378214)", 0.00337557191313, 0.00150012171957, -0.144135615419, "(0.001, 0.0, 0.0, 0.0, 0.001, 0.0, 0.0, 0.0, 0.001)", 0.630112164619, 0.278534102013, -0.342251348241, "(0.001, 0.0, 0.0, 0.0, 0.001, 0.0, 0.0, 0.0, 0.001)"
1636524450235818404, 865, 1636512754, 921683073, base_link, 0.000922405081334, -0.0170411294127, -0.766227894502, 0.642342247376, "(0.006034392942345923, 0.0, 0.0, 0.0, 0.00601239194600206, 0.0, 0.0, 0.0, 0.018619596808378214)", 0.010043316727, 0.00892265601157, -0.223085928768, "(0.001, 0.0, 0.0, 0.0, 0.001, 0.0, 0.0, 0.0, 0.001)", -0.0923958939923, 0.349267490626, 0.0351333054734, "(0.001, 0.0, 0.0, 0.0, 0.001, 0.0, 0.0, 0.0, 0.001)"
1636524450256240342, 866, 1636512754, 942114114, base_link, 0.00100624403982, -0.0170465759294, -0.766842234473, 0.64160843912, "(0.006034392942345923, 0.0, 0.0, 0.0, 0.00601239194600206, 0.0, 0.0, 0.0, 0.018619596808378214)", 0.00714619655634, 0.00595460994427, -0.152627084864, "(0.001, 0.0, 0.0, 0.0, 0.001, 0.0, 0.0, 0.0, 0.001)", 0.582554612151, 0.280523889894, -0.418013033727, "(0.001, 0.0, 0.0, 0.0, 0.001, 0.0, 0.0, 0.0, 0.001)"
1636524450275446442, 867, 1636512754, 961195945, base_link, 0.00105048297346, -0.0170796586053, -0.767488011783, 0.640834872269, "(0.006034392942345923, 0.0, 0.0, 0.0, 0.00601239194600206, 0.0, 0.0, 0.0, 0.018619596808378214)", 0.0120224869846, 0.00393414552411, -0.234885758868, "(0.001, 0.0, 0.0, 0.0, 0.001, 0.0, 0.0, 0.0, 0.001)", -0.474797294953, 0.817476832007, -0.0608544537907, "(0.001, 0.0, 0.0, 0.0, 0.001, 0.0, 0.0, 0.0, 0.001)"
1636524450297072745, 868, 1636512754, 982889890, base_link, 0.00113985380358, -0.0170924299609, -0.768130147289, 0.640064548617, "(0.006034392942345923, 0.0, 0.0, 0.0, 0.00601239194600206, 0.0, 0.0, 0.0, 0.018619596808378214)", 0.00769067530422, 0.00496298243487, -0.159981367737, "(0.001, 0.0, 0.0, 0.0, 0.001, 0.0, 0.0, 0.0, 0.001)", 0.603012799595, 0.183024935148, -0.0893343322848, "(0.001, 0.0, 0.0, 0.0, 0.001, 0.0, 0.0, 0.0, 0.001)"
1636524450315606084, 869, 1636512755, 1429080, base_link, 0.00123194288495, -0.0170842027716, -0.768793376303, 0.639267828757, "(0.006034392942345923, 0.0, 0.0, 0.0, 0.00601239194600206, 0.0, 0.0, 0.0, 0.018619596808378214)", 0.0122003098513, 0.010409003111, -0.245381898159, "(0.001, 0.0, 0.0, 0.0, 0.001, 0.0, 0.0, 0.0, 0.001)", 0.822021723211, 0.411308438948, 0.301316230125, "(0.001, 0.0, 0.0, 0.0, 0.001, 0.0, 0.0, 0.0, 0.001)"
1636524450336034150, 870, 1636512755, 21940946, base_link, 0.00132690914086, -0.017039279619, -0.769442771382, 0.638487058467, "(0.006034392942345923, 0.0, 0.0, 0.0, 0.00601239194600206, 0.0, 0.0, 0.0, 0.018619596808378214)", 0.00448738384336, 0.0116453967717, -0.162814179932, "(0.001, 0.0, 0.0, 0.0, 0.001, 0.0, 0.0, 0.0, 0.001)", 0.289319969712, 0.334682795389, 0.401348009206, "(0.001, 0.0, 0.0, 0.0, 0.001, 0.0, 0.0, 0.0, 0.001)"
1636524450355712029, 871, 1636512755, 41520118, base_link, 0.00140578472337, -0.0169611220276, -0.770116073567, 0.637676702838, "(0.006034392942345923, 0.0, 0.0, 0.0, 0.00601239194600206, 0.0, 0.0, 0.0, 0.018619596808378214)", -0.000667043438006, 0.0198014957646, -0.249604482656, "(0.001, 0.0, 0.0, 0.0, 0.001, 0.0, 0.0, 0.0, 0.001)", 1.1160160671, 0.368388618478, 0.443899446228, "(0.001, 0.0, 0.0, 0.0, 0.001, 0.0, 0.0, 0.0, 0.001)"
1636524450376616264, 872, 1636512755, 62408924, base_link, 0.00148012865585, -0.0168947743457, -0.770779476232, 0.636876263366, "(0.006034392942345923, 0.0, 0.0, 0.0, 0.00601239194600206, 0.0, 0.0, 0.0, 0.018619596808378214)", -0.000916377938994, 0.0142748782838, -0.165941458432, "(0.001, 0.0, 0.0, 0.0, 0.001, 0.0, 0.0, 0.0, 0.001)", 0.139617733535, 0.311322446699, 0.377462236259, "(0.001, 0.0, 0.0, 0.0, 0.001, 0.0, 0.0, 0.0, 0.001)"
1636524450395592023, 873, 1636512755, 81496000, base_link, 0.00153899441305, -0.0168073874985, -0.771437511587, 0.636081212534, "(0.006034392942345923, 0.0, 0.0, 0.0, 0.00601239194600206, 0.0, 0.0, 0.0, 0.018619596808378214)", -0.00602353925952, 0.0193095166391, -0.249272662707, "(0.001, 0.0, 0.0, 0.0, 0.001, 0.0, 0.0, 0.0, 0.001)", 1.12643990477, 0.436509536405, 0.304411074461, "(0.001, 0.0, 0.0, 0.0, 0.001, 0.0, 0.0, 0.0, 0.001)"
1636524450416738356, 874, 1636512755, 102545022, base_link, 0.00154247315865, -0.0167459903806, -0.772106770919, 0.635270278609, "(0.006034392942345923, 0.0, 0.0, 0.0, 0.00601239194600206, 0.0, 0.0, 0.0, 0.018619596808378214)", -0.0067922127591, 0.00885797917002, -0.166552011116, "(0.001, 0.0, 0.0, 0.0, 0.001, 0.0, 0.0, 0.0, 0.001)", -0.0012255104198, 0.330458901684, 0.235546906302, "(0.001, 0.0, 0.0, 0.0, 0.001, 0.0, 0.0, 0.0, 0.001)"
1636524450435346448, 875, 1636512755, 121237039, base_link, 0.00155180223776, -0.016704946955, -0.772780683772, 0.634451378315, "(0.006034392942345923, 0.0, 0.0, 0.0, 0.00601239194600206, 0.0, 0.0, 0.0, 0.018619596808378214)", -0.00886289602665, 0.00654964249649, -0.253191601672, "(0.001, 0.0, 0.0, 0.0, 0.001, 0.0, 0.0, 0.0, 0.001)", 0.695649564905, 0.533033275067, -0.00445222811036, "(0.001, 0.0, 0.0, 0.0, 0.001, 0.0, 0.0, 0.0, 0.001)"
1636524450455768171, 876, 1636512755, 141190052, base_link, 0.00155180223776, -0.016704946955, -0.772780683772, 0.634451378315, "(0.006034392942345923, 0.0, 0.0, 0.0, 0.00601239194600206, 0.0, 0.0, 0.0, 0.018619596808378214)", -0.00740665261045, 0.000237491098589, -0.171653509506, "(0.001, 0.0, 0.0, 0.0, 0.001, 0.0, 0.0, 0.0, 0.001)", 0.141018908353, 0.150291480953, -0.0380037937617, "(0.001, 0.0, 0.0, 0.0, 0.001, 0.0, 0.0, 0.0, 0.001)"
1636524450476428889, 877, 1636512755, 162305116, base_link, 0.00150687950736, -0.016640811842, -0.774160956503, 0.632768224646, "(0.006034392942345923, 0.0, 0.0, 0.0, 0.00601239194600206, 0.0, 0.0, 0.0, 0.018619596808378214)", -0.0104063988104, -0.00279621025796, -0.259153349595, "(0.001, 0.0, 0.0, 0.0, 0.001, 0.0, 0.0, 0.0, 0.001)", 0.144837288666, 0.581031787091, 0.179602475578, "(0.001, 0.0, 0.0, 0.0, 0.001, 0.0, 0.0, 0.0, 0.001)"
1636524450496040446, 878, 1636512755, 181915998, base_link, 0.00147464817783, -0.0165942853814, -0.774867276132, 0.631904391095, "(0.006034392942345923, 0.0, 0.0, 0.0, 0.00601239194600206, 0.0, 0.0, 0.0, 0.018619596808378214)", -0.0101465332918, -0.00227279154763, -0.176879517727, "(0.001, 0.0, 0.0, 0.0, 0.001, 0.0, 0.0, 0.0, 0.001)", 0.795725833617, 0.15765074702, -0.113250664288, "(0.001, 0.0, 0.0, 0.0, 0.001, 0.0, 0.0, 0.0, 0.001)"
1636524450517526553, 879, 1636512755, 203454971, base_link, 0.00147464817783, -0.0165942853814, -0.774867276132, 0.631904391095, "(0.006034392942345923, 0.0, 0.0, 0.0, 0.00601239194600206, 0.0, 0.0, 0.0, 0.018619596808378214)", -0.0130477264433, 0.00667867398521, -0.268340312967, "(0.001, 0.0, 0.0, 0.0, 0.001, 0.0, 0.0, 0.0, 0.001)", 0.158278196017, 0.10589110928, 0.244735760741, "(0.001, 0.0, 0.0, 0.0, 0.001, 0.0, 0.0, 0.0, 0.001)"
1636524450536238184, 880, 1636512755, 222107887, base_link, 0.00157353524023, -0.0163966279309, -0.776323197837, 0.630119803752, "(0.006034392942345923, 0.0, 0.0, 0.0, 0.00601239194600206, 0.0, 0.0, 0.0, 0.018619596808378214)", -0.00953506966527, 0.0111283712559, -0.184740062599, "(0.001, 0.0, 0.0, 0.0, 0.001, 0.0, 0.0, 0.0, 0.001)", 0.951382447476, 0.0616458164391, -0.00177144362108, "(0.001, 0.0, 0.0, 0.0, 0.001, 0.0, 0.0, 0.0, 0.001)"
1636524450555257932, 881, 1636512755, 241086006, base_link, 0.00167646250669, -0.0162676087954, -0.777094528169, 0.629171398482, "(0.006034392942345923, 0.0, 0.0, 0.0, 0.00601239194600206, 0.0, 0.0, 0.0, 0.018619596808378214)", -0.0129718028741, 0.027587737381, -0.285489002781, "(0.001, 0.0, 0.0, 0.0, 0.001, 0.0, 0.0, 0.0, 0.001)", 0.263137682689, -0.197398716326, -0.0882773258251, "(0.001, 0.0, 0.0, 0.0, 0.001, 0.0, 0.0, 0.0, 0.001)"
1636524450577235915, 882, 1636512755, 262511968, base_link, 0.00181758129319, -0.0161471770748, -0.777867554972, 0.628218140452, "(0.006034392942345923, 0.0, 0.0, 0.0, 0.00601239194600206, 0.0, 0.0, 0.0, 0.018619596808378214)", -0.00438416722689, 0.0237043949872, -0.19518929466, "(0.001, 0.0, 0.0, 0.0, 0.001, 0.0, 0.0, 0.0, 0.001)", 0.482117349337, 0.080413100904, -0.157005333571, "(0.001, 0.0, 0.0, 0.0, 0.001, 0.0, 0.0, 0.0, 0.001)"
