time, .header.seq, .header.stamp.secs, .header.stamp.nsecs, .header.frame_id, .orientation.x, .orientation.y, .orientation.z, .orientation.w, .orientation_covariance, .angular_velocity.x, .angular_velocity.y, .angular_velocity.z, .angular_velocity_covariance, .linear_acceleration.x, .linear_acceleration.y, .linear_acceleration.z, .linear_acceleration_covariance
1637149726269311201, 20300, 1636513559, 680094957, base_link, -0.00810948854523, 0.00734448896195, -0.0266745754706, -0.999584294445, "(0.00018325629268276314, 0.0, 0.0, 0.0, 0.0001827315153806958, 0.0, 0.0, 0.0, 0.0035168039016831992)", -0.00178791573774, 0.000777438796211, 0.00018381009841, "(0.001, 0.0, 0.0, 0.0, 0.001, 0.0, 0.0, 0.0, 0.001)", 0.0637038613334, -0.0738678624052, 0.10615401693, "(0.001, 0.0, 0.0, 0.0, 0.001, 0.0, 0.0, 0.0, 0.001)"
1637149726278560481, 20301, 1636513559, 699734926, base_link, -0.00813426088598, 0.00735057771788, -0.0266749060831, -0.999584039585, "(0.00018325629268276314, 0.0, 0.0, 0.0, 0.0001827315153806958, 0.0, 0.0, 0.0, 0.0035168039016831992)", 0.00144775093157, 3.28832306381e-05, -8.48626523524e-05, "(0.001, 0.0, 0.0, 0.0, 0.001, 0.0, 0.0, 0.0, 0.001)", 0.0772502276055, -0.0633329647714, -0.0265955498735, "(0.001, 0.0, 0.0, 0.0, 0.001, 0.0, 0.0, 0.0, 0.001)"
1637149726297822619, 20302, 1636513559, 719064950, base_link, -0.00812131265358, 0.00735690746065, -0.0266806738268, -0.999583944368, "(0.00018325629268276314, 0.0, 0.0, 0.0, 0.0001827315153806958, 0.0, 0.0, 0.0, 0.0035168039016831992)", -0.000582913664811, -0.000530255009872, 0.00115109865725, "(0.001, 0.0, 0.0, 0.0, 0.001, 0.0, 0.0, 0.0, 0.001)", -0.161096785776, 0.0188730280806, -0.0870352776201, "(0.001, 0.0, 0.0, 0.0, 0.001, 0.0, 0.0, 0.0, 0.001)"
1637149726318590111, 20303, 1636513559, 740020990, base_link, -0.00813221753438, 0.00735507381127, -0.0266819760995, -0.999583834442, "(0.00018325629268276314, 0.0, 0.0, 0.0, 0.0001827315153806958, 0.0, 0.0, 0.0, 0.0035168039016831992)", 0.00140778538575, -0.000685173164629, 0.000154411061237, "(0.001, 0.0, 0.0, 0.0, 0.001, 0.0, 0.0, 0.0, 0.001)", 0.273136232204, -0.0271100921864, 0.230288622529, "(0.001, 0.0, 0.0, 0.0, 0.001, 0.0, 0.0, 0.0, 0.001)"
1637149726337629246, 20304, 1636513559, 759037017, base_link, -0.0081281972481, 0.00736246454652, -0.0266888304021, -0.999583629746, "(0.00018325629268276314, 0.0, 0.0, 0.0, 0.0001827315153806958, 0.0, 0.0, 0.0, 0.0035168039016831992)", -0.000614247038453, 0.000147132828533, 0.00123792314536, "(0.001, 0.0, 0.0, 0.0, 0.001, 0.0, 0.0, 0.0, 0.001)", -0.286188464842, -0.0502552368561, -0.252199080266, "(0.001, 0.0, 0.0, 0.0, 0.001, 0.0, 0.0, 0.0, 0.001)"
1637149726367296978, 20305, 1636513559, 780080080, base_link, -0.00813441933342, 0.00735245094034, -0.0266946225075, -0.999583498171, "(0.00018325629268276314, 0.0, 0.0, 0.0, 0.0001827315153806958, 0.0, 0.0, 0.0, 0.0035168039016831992)", 0.00176341142262, 2.47239879183e-05, 0.000658851150711, "(0.001, 0.0, 0.0, 0.0, 0.001, 0.0, 0.0, 0.0, 0.001)", 0.276634026248, 0.0255374112645, 0.33691797185, "(0.001, 0.0, 0.0, 0.0, 0.001, 0.0, 0.0, 0.0, 0.001)"
1637149726378428699, 20306, 1636513559, 799829959, base_link, -0.00814348736737, 0.00735409954115, -0.0266875401745, -0.999583601323, "(0.00018325629268276314, 0.0, 0.0, 0.0, 0.0001827315153806958, 0.0, 0.0, 0.0, 0.0035168039016831992)", 0.000686724001486, 0.000955243025963, -2.64252206689e-05, "(0.001, 0.0, 0.0, 0.0, 0.001, 0.0, 0.0, 0.0, 0.001)", -0.160457893118, -0.0587364044072, -0.257689282936, "(0.001, 0.0, 0.0, 0.0, 0.001, 0.0, 0.0, 0.0, 0.001)"
1637149726397298982, 20307, 1636513559, 818763017, base_link, -0.00812091412596, 0.00734961647267, -0.0266948598131, -0.99958362249, "(0.00018325629268276314, 0.0, 0.0, 0.0, 0.0001827315153806958, 0.0, 0.0, 0.0, 0.0035168039016831992)", -0.000547013875931, 0.000278216824681, 0.000298106131235, "(0.001, 0.0, 0.0, 0.0, 0.001, 0.0, 0.0, 0.0, 0.001)", 0.113715957339, -0.0675054415695, 0.199898317451, "(0.001, 0.0, 0.0, 0.0, 0.001, 0.0, 0.0, 0.0, 0.001)"
1637149726417384233, 20308, 1636513559, 838823080, base_link, -0.00813938108704, 0.00735328787939, -0.0266925757623, -0.999583506283, "(0.00018325629268276314, 0.0, 0.0, 0.0, 0.0001827315153806958, 0.0, 0.0, 0.0, 0.0035168039016831992)", 0.000587926839567, 0.000272733591259, 0.000146910080164, "(0.001, 0.0, 0.0, 0.0, 0.001, 0.0, 0.0, 0.0, 0.001)", 0.000178881563767, 0.021597167075, -0.129109556522, "(0.001, 0.0, 0.0, 0.0, 0.001, 0.0, 0.0, 0.0, 0.001)"
1637149726439124413, 20309, 1636513559, 860387086, base_link, -0.00811342644057, 0.00734960519819, -0.0267055176763, -0.999583398692, "(0.00018325629268276314, 0.0, 0.0, 0.0, 0.0001827315153806958, 0.0, 0.0, 0.0, 0.0035168039016831992)", -0.00147055356855, 0.000315822438789, 0.00127412752165, "(0.001, 0.0, 0.0, 0.0, 0.001, 0.0, 0.0, 0.0, 0.001)", -0.0607662402373, 0.0501864577007, 0.0410924197341, "(0.001, 0.0, 0.0, 0.0, 0.001, 0.0, 0.0, 0.0, 0.001)"
1637149726464331879, 20310, 1636513559, 878334999, base_link, -0.00812694116223, 0.00735901398734, -0.0267009111817, -0.99958334274, "(0.00018325629268276314, 0.0, 0.0, 0.0, 0.0001827315153806958, 0.0, 0.0, 0.0, 0.0035168039016831992)", 0.0010767828206, -0.000992576623196, 0.000110160390416, "(0.001, 0.0, 0.0, 0.0, 0.001, 0.0, 0.0, 0.0, 0.001)", 0.0777577725551, 0.0110464862909, 0.0688694457019, "(0.001, 0.0, 0.0, 0.0, 0.001, 0.0, 0.0, 0.0, 0.001)"
1637149726477895700, 20311, 1636513559, 899317026, base_link, -0.00812316194209, 0.00735206983784, -0.0267068668181, -0.999583265453, "(0.00018325629268276314, 0.0, 0.0, 0.0, 0.0001827315153806958, 0.0, 0.0, 0.0, 0.0035168039016831992)", -0.000706706995521, 0.000507204250941, 0.000854894028393, "(0.001, 0.0, 0.0, 0.0, 0.001, 0.0, 0.0, 0.0, 0.001)", -0.137910810483, -0.0481499134687, -0.201895053624, "(0.001, 0.0, 0.0, 0.0, 0.001, 0.0, 0.0, 0.0, 0.001)"
1637149726498150207, 20312, 1636513559, 919447898, base_link, -0.00812472541919, 0.00734859633209, -0.0267037987092, -0.999583360257, "(0.00018325629268276314, 0.0, 0.0, 0.0, 0.0001827315153806958, 0.0, 0.0, 0.0, 0.0035168039016831992)", 0.00108354463246, 0.000350826308945, -0.000323954336657, "(0.001, 0.0, 0.0, 0.0, 0.001, 0.0, 0.0, 0.0, 0.001)", 0.210248546229, 0.0780769941629, 0.183030904123, "(0.001, 0.0, 0.0, 0.0, 0.001, 0.0, 0.0, 0.0, 0.001)"
1637149726517355010, 20313, 1636513559, 938715934, base_link, -0.00812021008695, 0.00735209934184, -0.0267013141586, -0.999583437561, "(0.00018325629268276314, 0.0, 0.0, 0.0, 0.0001827315153806958, 0.0, 0.0, 0.0, 0.0035168039016831992)", -0.00105737716432, 0.000811105496242, 4.54694704037e-05, "(0.001, 0.0, 0.0, 0.0, 0.001, 0.0, 0.0, 0.0, 0.001)", -0.216918307301, 0.0395734140778, -0.281451876833, "(0.001, 0.0, 0.0, 0.0, 0.001, 0.0, 0.0, 0.0, 0.001)"
1637149726538262454, 20314, 1636513559, 959517955, base_link, -0.00810829092542, 0.00734374727724, -0.0267058004567, -0.999583475862, "(0.00018325629268276314, 0.0, 0.0, 0.0, 0.0001827315153806958, 0.0, 0.0, 0.0, 0.0035168039016831992)", -0.000647722210659, 0.00036693874421, 0.000340082923686, "(0.001, 0.0, 0.0, 0.0, 0.001, 0.0, 0.0, 0.0, 0.001)", 0.198032702282, -0.0127294385708, 0.265492922818, "(0.001, 0.0, 0.0, 0.0, 0.001, 0.0, 0.0, 0.0, 0.001)"
1637149726571549950, 20315, 1636513559, 978703975, base_link, -0.00811925740323, 0.00734209274376, -0.0266971629805, -0.999583629729, "(0.00018325629268276314, 0.0, 0.0, 0.0, 0.0001827315153806958, 0.0, 0.0, 0.0, 0.0035168039016831992)", 3.10311853841e-05, 0.00115784206774, -0.000753749305683, "(0.001, 0.0, 0.0, 0.0, 0.001, 0.0, 0.0, 0.0, 0.001)", -0.121164038393, 0.00931699075349, -0.226547043004, "(0.001, 0.0, 0.0, 0.0, 0.001, 0.0, 0.0, 0.0, 0.001)"
1637149726577059727, 20316, 1636513559, 998424053, base_link, -0.00810519743898, 0.00734220690646, -0.0267058115309, -0.99958351197, "(0.00018325629268276314, 0.0, 0.0, 0.0, 0.0001827315153806958, 0.0, 0.0, 0.0, 0.0035168039016831992)", -0.000787001237883, 0.000672615892562, 0.000544997275012, "(0.001, 0.0, 0.0, 0.0, 0.001, 0.0, 0.0, 0.0, 0.001)", -0.056987911253, 0.0313667671418, 0.112402609212, "(0.001, 0.0, 0.0, 0.0, 0.001, 0.0, 0.0, 0.0, 0.001)"
1637149726598225514, 20317, 1636513560, 19516944, base_link, -0.00811367327111, 0.00734197146097, -0.0266979749085, -0.999583654277, "(0.00018325629268276314, 0.0, 0.0, 0.0, 0.0001827315153806958, 0.0, 0.0, 0.0, 0.0035168039016831992)", 0.000407087815902, -0.000167142359034, -0.000610418517713, "(0.001, 0.0, 0.0, 0.0, 0.001, 0.0, 0.0, 0.0, 0.001)", 0.0981894136319, 0.0395077390577, 0.0357519179187, "(0.001, 0.0, 0.0, 0.0, 0.001, 0.0, 0.0, 0.0, 0.001)"
1637149726617116591, 20318, 1636513560, 38403987, base_link, -0.00810015162669, 0.00734058893048, -0.0267108671162, -0.999583429672, "(0.00018325629268276314, 0.0, 0.0, 0.0, 0.0001827315153806958, 0.0, 0.0, 0.0, 0.0035168039016831992)", -0.00192289734366, 0.00139235394674, 0.00135554919856, "(0.001, 0.0, 0.0, 0.0, 0.001, 0.0, 0.0, 0.0, 0.001)", -0.197980612763, -0.074572508731, -0.0637445942356, "(0.001, 0.0, 0.0, 0.0, 0.001, 0.0, 0.0, 0.0, 0.001)"
1637149726637950381, 20319, 1636513560, 59286117, base_link, -0.00811789119974, 0.00734362284427, -0.0267094893374, -0.999583300293, "(0.00018325629268276314, 0.0, 0.0, 0.0, 0.0001827315153806958, 0.0, 0.0, 0.0, 0.0035168039016831992)", 0.00227806230501, -0.000940720446251, 0.000298666575823, "(0.001, 0.0, 0.0, 0.0, 0.001, 0.0, 0.0, 0.0, 0.001)", 0.140984674651, 0.0530631306436, 0.224724352493, "(0.001, 0.0, 0.0, 0.0, 0.001, 0.0, 0.0, 0.0, 0.001)"
1637149726668292096, 20320, 1636513560, 79597949, base_link, -0.00810151522186, 0.00733785462146, -0.0267085512742, -0.999583500579, "(0.00018325629268276314, 0.0, 0.0, 0.0, 0.0001827315153806958, 0.0, 0.0, 0.0, 0.0035168039016831992)", -0.00204587256579, 0.00120817142355, 1.92182980117e-05, "(0.001, 0.0, 0.0, 0.0, 0.001, 0.0, 0.0, 0.0, 0.001)", -0.158799451076, -0.0426523631798, -0.257921227262, "(0.001, 0.0, 0.0, 0.0, 0.001, 0.0, 0.0, 0.0, 0.001)"
1637149726677362137, 20321, 1636513560, 98666906, base_link, -0.00809431097073, 0.00733771867783, -0.0267119469811, -0.999583469203, "(0.00018325629268276314, 0.0, 0.0, 0.0, 0.0001827315153806958, 0.0, 0.0, 0.0, 0.0035168039016831992)", 0.000136840914447, -0.000213698073799, 0.000133695942785, "(0.001, 0.0, 0.0, 0.0, 0.001, 0.0, 0.0, 0.0, 0.001)", 0.127932283644, -0.131389561116, 0.2971398437, "(0.001, 0.0, 0.0, 0.0, 0.001, 0.0, 0.0, 0.0, 0.001)"
1637149726696568943, 20322, 1636513560, 117991924, base_link, -0.00809431097073, 0.00733771867783, -0.0267119469811, -0.999583469203, "(0.00018325629268276314, 0.0, 0.0, 0.0, 0.0001827315153806958, 0.0, 0.0, 0.0, 0.0035168039016831992)", -0.00108455566314, 3.76435939424e-05, -9.57078954549e-05, "(0.001, 0.0, 0.0, 0.0, 0.001, 0.0, 0.0, 0.0, 0.001)", -0.0848607604074, -0.0306113661298, -0.305104811387, "(0.001, 0.0, 0.0, 0.0, 0.001, 0.0, 0.0, 0.0, 0.001)"
1637149726718398070, 20323, 1636513560, 139826059, base_link, -0.00808130158333, 0.0073375141023, -0.0267182488584, -0.99958340754, "(0.00018325629268276314, 0.0, 0.0, 0.0, 0.0001827315153806958, 0.0, 0.0, 0.0, 0.0035168039016831992)", -0.00050851667943, 0.000223321439763, 0.00067388087597, "(0.001, 0.0, 0.0, 0.0, 0.001, 0.0, 0.0, 0.0, 0.001)", 0.0379085129526, -0.0549218908115, 0.215639889924, "(0.001, 0.0, 0.0, 0.0, 0.001, 0.0, 0.0, 0.0, 0.001)"
1637149726736846623, 20324, 1636513560, 158288002, base_link, -0.00810857751093, 0.00735581512568, -0.0267165916678, -0.999583096438, "(0.00018325629268276314, 0.0, 0.0, 0.0, 0.0001827315153806958, 0.0, 0.0, 0.0, 0.0035168039016831992)", 0.00231853149301, -0.00243313576152, 0.000657281056019, "(0.001, 0.0, 0.0, 0.0, 0.001, 0.0, 0.0, 0.0, 0.001)", -0.0237745761117, 0.0415181907257, -0.164938250744, "(0.001, 0.0, 0.0, 0.0, 0.001, 0.0, 0.0, 0.0, 0.001)"
1637149726767136946, 20325, 1636513560, 179729938, base_link, -0.00809456020937, 0.00735287937954, -0.0267258369527, -0.999582984499, "(0.00018325629268276314, 0.0, 0.0, 0.0, 0.0001827315153806958, 0.0, 0.0, 0.0, 0.0035168039016831992)", -0.000287455846477, 0.000206891821268, 0.000914013569512, "(0.001, 0.0, 0.0, 0.0, 0.001, 0.0, 0.0, 0.0, 0.001)", -0.0381082265817, -0.0644474979005, 0.0097106617591, "(0.001, 0.0, 0.0, 0.0, 0.001, 0.0, 0.0, 0.0, 0.001)"
1637149726777902678, 20326, 1636513560, 199287891, base_link, -0.00811449537148, 0.0073661957232, -0.0267267533295, -0.999582700321, "(0.00018325629268276314, 0.0, 0.0, 0.0, 0.0001827315153806958, 0.0, 0.0, 0.0, 0.0035168039016831992)", 0.0026218212029, -0.0020118472025, 0.00068843798722, "(0.001, 0.0, 0.0, 0.0, 0.001, 0.0, 0.0, 0.0, 0.001)", 0.133641677881, 0.0431335479427, 0.0570329094351, "(0.001, 0.0, 0.0, 0.0, 0.001, 0.0, 0.0, 0.0, 0.001)"
1637149726797549353, 20327, 1636513560, 218811988, base_link, -0.00809034580441, 0.00735683531814, -0.0267307554505, -0.999582857992, "(0.00018325629268276314, 0.0, 0.0, 0.0, 0.0001827315153806958, 0.0, 0.0, 0.0, 0.0035168039016831992)", -0.00255499367425, 0.000619436170016, 0.000807677175284, "(0.001, 0.0, 0.0, 0.0, 0.001, 0.0, 0.0, 0.0, 0.001)", -0.133338928301, 0.0436225970315, -0.18862234166, "(0.001, 0.0, 0.0, 0.0, 0.001, 0.0, 0.0, 0.0, 0.001)"
1637149726817339409, 20328, 1636513560, 238745927, base_link, -0.00809831057464, 0.00735776547122, -0.026726371117, -0.999582903885, "(0.00018325629268276314, 0.0, 0.0, 0.0, 0.0001827315153806958, 0.0, 0.0, 0.0, 0.0035168039016831992)", 0.000997178016465, 9.49427441343e-05, -0.000337562581733, "(0.001, 0.0, 0.0, 0.0, 0.001, 0.0, 0.0, 0.0, 0.001)", 0.198577312679, -0.0390437857185, 0.242223192912, "(0.001, 0.0, 0.0, 0.0, 0.001, 0.0, 0.0, 0.0, 0.001)"
1637149726838603240, 20329, 1636513560, 259968042, base_link, -0.00809883398132, 0.00735322756275, -0.0267231630541, -0.999583018808, "(0.00018325629268276314, 0.0, 0.0, 0.0, 0.0001827315153806958, 0.0, 0.0, 0.0, 0.0035168039016831992)", -0.00112685367015, 0.00107560145857, -0.000219687304474, "(0.001, 0.0, 0.0, 0.0, 0.001, 0.0, 0.0, 0.0, 0.001)", -0.149263201934, 0.0428610222335, -0.214970864645, "(0.001, 0.0, 0.0, 0.0, 0.001, 0.0, 0.0, 0.0, 0.001)"
1637149726864325221, 20330, 1636513560, 278549909, base_link, -0.00808480467068, 0.00734660791589, -0.0267301662736, -0.999582993801, "(0.00018325629268276314, 0.0, 0.0, 0.0, 0.0001827315153806958, 0.0, 0.0, 0.0, 0.0035168039016831992)", -1.39197595148e-05, 0.00133075563554, 0.000524829983259, "(0.001, 0.0, 0.0, 0.0, 0.001, 0.0, 0.0, 0.0, 0.001)", 0.088267093261, 0.0315172330499, 0.196873960112, "(0.001, 0.0, 0.0, 0.0, 0.001, 0.0, 0.0, 0.0, 0.001)"
1637149726881826726, 20331, 1636513560, 302912950, base_link, -0.00808480467068, 0.00734660791589, -0.0267301662736, -0.999582993801, "(0.00018325629268276314, 0.0, 0.0, 0.0, 0.0001827315153806958, 0.0, 0.0, 0.0, 0.0035168039016831992)", 0.000773568679342, 0.000104927326997, -0.000843633852661, "(0.001, 0.0, 0.0, 0.0, 0.001, 0.0, 0.0, 0.0, 0.001)", -0.00929644288236, 0.0865806951587, -0.152934879371, "(0.001, 0.0, 0.0, 0.0, 0.001, 0.0, 0.0, 0.0, 0.001)"
1637149726899554853, 20332, 1636513560, 320982933, base_link, -0.0080855624076, 0.00734048734953, -0.0267265491551, -0.999583129358, "(0.00024456432761393865, 0.0, 0.0, 0.0, 0.00024406848193461814, 0.0, 0.0, 0.0, 0.003586299211801036)", -0.00119963031834, 0.00176300572009, 0.000119954475819, "(0.001, 0.0, 0.0, 0.0, 0.001, 0.0, 0.0, 0.0, 0.001)", -0.0256986616279, -0.0733942084795, 0.0673408837659, "(0.001, 0.0, 0.0, 0.0, 0.001, 0.0, 0.0, 0.0, 0.001)"
1637149726917169386, 20333, 1636513560, 338567972, base_link, -0.00810651576137, 0.00735348446132, -0.0267153595182, -0.999583163241, "(0.0001812398765466683, 0.0, 0.0, 0.0, 0.00018069015325274888, 0.0, 0.0, 0.0, 0.003534839422419944)", 0.00166091808877, -0.00122526647696, -0.000921150378201, "(0.001, 0.0, 0.0, 0.0, 0.001, 0.0, 0.0, 0.0, 0.001)", 0.100770501933, 0.065838611469, 0.0568280697145, "(0.001, 0.0, 0.0, 0.0, 0.001, 0.0, 0.0, 0.0, 0.001)"
1637149726937469757, 20334, 1636513560, 358808994, base_link, -0.00808006634571, 0.00733316875321, -0.0267210625328, -0.999583374202, "(0.0001812398765466683, 0.0, 0.0, 0.0, 0.00018069015325274888, 0.0, 0.0, 0.0, 0.003534839422419944)", -0.00294695006696, 0.00268670176226, 5.4784299146e-05, "(0.001, 0.0, 0.0, 0.0, 0.001, 0.0, 0.0, 0.0, 0.001)", -0.084661734738, 0.00724616397986, -0.12284307265, "(0.001, 0.0, 0.0, 0.0, 0.001, 0.0, 0.0, 0.0, 0.001)"
1637149726971441497, 20335, 1636513560, 380023956, base_link, -0.00808589467866, 0.00733959659683, -0.0267209597154, -0.999583282644, "(0.0001812398765466683, 0.0, 0.0, 0.0, 0.00018069015325274888, 0.0, 0.0, 0.0, 0.003534839422419944)", 0.000783103391434, -0.000296887800399, -7.91009928832e-05, "(0.001, 0.0, 0.0, 0.0, 0.001, 0.0, 0.0, 0.0, 0.001)", 0.149230108854, -0.0438877384215, 0.197088927856, "(0.001, 0.0, 0.0, 0.0, 0.001, 0.0, 0.0, 0.0, 0.001)"
1637149726977066551, 20336, 1636513560, 398488044, base_link, -0.00807269415308, 0.00733716694313, -0.0267184259801, -0.999583474905, "(0.0001812398765466683, 0.0, 0.0, 0.0, 0.00018069015325274888, 0.0, 0.0, 0.0, 0.003534839422419944)", -0.00239153034552, 0.000826858040124, 0.00017465023702, "(0.001, 0.0, 0.0, 0.0, 0.001, 0.0, 0.0, 0.0, 0.001)", -0.127138499068, -5.81783725501e-07, -0.25539199378, "(0.001, 0.0, 0.0, 0.0, 0.001, 0.0, 0.0, 0.0, 0.001)"
1637149726997634534, 20337, 1636513560, 419058084, base_link, -0.00806721770105, 0.00733140117017, -0.0267246964911, -0.999583393796, "(0.0001812398765466683, 0.0, 0.0, 0.0, 0.00018069015325274888, 0.0, 0.0, 0.0, 0.003534839422419944)", -5.64002525646e-05, 0.000355335446552, 0.000202191763388, "(0.001, 0.0, 0.0, 0.0, 0.001, 0.0, 0.0, 0.0, 0.001)", 0.117008025155, -0.111725460586, 0.245964006393, "(0.001, 0.0, 0.0, 0.0, 0.001, 0.0, 0.0, 0.0, 0.001)"
1637149727018107585, 20338, 1636513560, 439553976, base_link, -0.00808111344888, 0.00734635158945, -0.0267240259699, -0.999583189714, "(0.0001812398765466683, 0.0, 0.0, 0.0, 0.00018069015325274888, 0.0, 0.0, 0.0, 0.003534839422419944)", 0.000182312169881, -0.00125246491079, 0.000769974884492, "(0.001, 0.0, 0.0, 0.0, 0.001, 0.0, 0.0, 0.0, 0.001)", -0.139786890466, 0.0548763303302, -0.274789673988, "(0.001, 0.0, 0.0, 0.0, 0.001, 0.0, 0.0, 0.0, 0.001)"
1637149727037665735, 20339, 1636513560, 459000110, base_link, -0.00804740486936, 0.0073398608177, -0.0267323997931, -0.999583285434, "(0.0001812398765466683, 0.0, 0.0, 0.0, 0.00018069015325274888, 0.0, 0.0, 0.0, 0.003534839422419944)", -0.00176596304667, 0.000139984077922, 0.000459741869333, "(0.001, 0.0, 0.0, 0.0, 0.001, 0.0, 0.0, 0.0, 0.001)", 0.0618345350073, -0.0557667473139, 0.1828669726, "(0.001, 0.0, 0.0, 0.0, 0.001, 0.0, 0.0, 0.0, 0.001)"
1637149727068535616, 20340, 1636513560, 479461908, base_link, -0.00807898164775, 0.0073545333136, -0.0267311927192, -0.999582955152, "(0.0001812398765466683, 0.0, 0.0, 0.0, 0.00018069015325274888, 0.0, 0.0, 0.0, 0.003534839422419944)", 0.00149498217831, -0.00148029893131, 0.000775343763119, "(0.001, 0.0, 0.0, 0.0, 0.001, 0.0, 0.0, 0.0, 0.001)", -0.0639914519202, -0.0503170224553, -0.108883081398, "(0.001, 0.0, 0.0, 0.0, 0.001, 0.0, 0.0, 0.0, 0.001)"
1637149727077500815, 20341, 1636513560, 498876094, base_link, -0.00805315306477, 0.00734807500011, -0.0267380940039, -0.999583026491, "(0.0001812398765466683, 0.0, 0.0, 0.0, 0.00018069015325274888, 0.0, 0.0, 0.0, 0.003534839422419944)", -0.00142326489153, 0.000307791287437, 0.000631971881517, "(0.001, 0.0, 0.0, 0.0, 0.001, 0.0, 0.0, 0.0, 0.001)", -0.0459188543801, -0.0182075520876, 0.00312397088125, "(0.001, 0.0, 0.0, 0.0, 0.001, 0.0, 0.0, 0.0, 0.001)"
1637149727097098229, 20342, 1636513560, 518512010, base_link, -0.00806819798793, 0.00735799606413, -0.0267313646639, -0.99958301217, "(0.0001812398765466683, 0.0, 0.0, 0.0, 0.00018069015325274888, 0.0, 0.0, 0.0, 0.003534839422419944)", 0.00152026219602, -0.00102800482729, -0.000390405516719, "(0.001, 0.0, 0.0, 0.0, 0.001, 0.0, 0.0, 0.0, 0.001)", 0.0681424006589, -0.0503949191451, 0.111850836525, "(0.001, 0.0, 0.0, 0.0, 0.001, 0.0, 0.0, 0.0, 0.001)"
1637149727117582711, 20343, 1636513560, 538966894, base_link, -0.00805374772039, 0.00735643165012, -0.0267403070899, -0.999582901033, "(0.0001812398765466683, 0.0, 0.0, 0.0, 0.00018069015325274888, 0.0, 0.0, 0.0, 0.003534839422419944)", -0.0022107055242, -2.29880646385e-05, 0.000942630527061, "(0.001, 0.0, 0.0, 0.0, 0.001, 0.0, 0.0, 0.0, 0.001)", -0.14335572698, 0.0220992819408, -0.188094236704, "(0.001, 0.0, 0.0, 0.0, 0.001, 0.0, 0.0, 0.0, 0.001)"
1637149727138474309, 20344, 1636513560, 559873104, base_link, -0.00805624653502, 0.00735980219857, -0.0267398376965, -0.999582868642, "(0.0001812398765466683, 0.0, 0.0, 0.0, 0.00018069015325274888, 0.0, 0.0, 0.0, 0.003534839422419944)", 0.000652280498149, -0.000617239858775, 0.000287006564025, "(0.001, 0.0, 0.0, 0.0, 0.001, 0.0, 0.0, 0.0, 0.001)", 0.0946962761931, 0.0208672269906, 0.236141788492, "(0.001, 0.0, 0.0, 0.0, 0.001, 0.0, 0.0, 0.0, 0.001)"
1637149727167606865, 20345, 1636513560, 579536914, base_link, -0.00806831961849, 0.00736902670589, -0.0267421875657, -0.99958264044, "(0.0001812398765466683, 0.0, 0.0, 0.0, 0.00018069015325274888, 0.0, 0.0, 0.0, 0.003534839422419944)", 4.57928896767e-05, -0.000632876159758, 0.000661246660739, "(0.001, 0.0, 0.0, 0.0, 0.001, 0.0, 0.0, 0.0, 0.001)", -0.180670046452, 0.0484668085691, -0.290440101887, "(0.001, 0.0, 0.0, 0.0, 0.001, 0.0, 0.0, 0.0, 0.001)"
1637149727177222013, 20346, 1636513560, 598670959, base_link, -0.00805543807211, 0.00736503650819, -0.0267437488737, -0.999582731969, "(0.0001812398765466683, 0.0, 0.0, 0.0, 0.00018069015325274888, 0.0, 0.0, 0.0, 0.003534839422419944)", 0.000386912390555, -0.000313039238434, 0.00023838003802, "(0.001, 0.0, 0.0, 0.0, 0.001, 0.0, 0.0, 0.0, 0.001)", 0.135431051156, -0.00732053448054, 0.257805586166, "(0.001, 0.0, 0.0, 0.0, 0.001, 0.0, 0.0, 0.0, 0.001)"
1637149727201817082, 20347, 1636513560, 623183965, base_link, -0.00807070868242, 0.00738053902198, -0.0267383685185, -0.999582638382, "(0.0001812398765466683, 0.0, 0.0, 0.0, 0.00018069015325274888, 0.0, 0.0, 0.0, 0.003534839422419944)", 0.000503463806193, -0.00131908919033, -0.000331235872004, "(0.001, 0.0, 0.0, 0.0, 0.001, 0.0, 0.0, 0.0, 0.001)", -0.0758180875312, 0.0231949594216, -0.203845817408, "(0.001, 0.0, 0.0, 0.0, 0.001, 0.0, 0.0, 0.0, 0.001)"
1637149727217231853, 20348, 1636513560, 638658046, base_link, -0.00805338298742, 0.00737134559902, -0.0267441796484, -0.999582690497, "(0.0001812398765466683, 0.0, 0.0, 0.0, 0.00018069015325274888, 0.0, 0.0, 0.0, 0.003534839422419944)", -0.00091986186876, 0.000477017095168, 0.000562693893358, "(0.001, 0.0, 0.0, 0.0, 0.001, 0.0, 0.0, 0.0, 0.001)", 0.109029731452, 0.0330563700971, 0.107301591464, "(0.001, 0.0, 0.0, 0.0, 0.001, 0.0, 0.0, 0.0, 0.001)"
1637149727237786109, 20349, 1636513560, 659092903, base_link, -0.00807690059503, 0.00737510153409, -0.0267370749756, -0.999582663103, "(0.0001812398765466683, 0.0, 0.0, 0.0, 0.00018069015325274888, 0.0, 0.0, 0.0, 0.003534839422419944)", 0.0015658698318, -0.000426572029206, -0.000611334632946, "(0.001, 0.0, 0.0, 0.0, 0.001, 0.0, 0.0, 0.0, 0.001)", -0.0287412356709, 0.0221139335041, -0.00129076374616, "(0.001, 0.0, 0.0, 0.0, 0.001, 0.0, 0.0, 0.0, 0.001)"
1637149727264882232, 20350, 1636513560, 680135011, base_link, -0.00805916208577, 0.00736749965368, -0.0267410511522, -0.999582755973, "(0.0001812398765466683, 0.0, 0.0, 0.0, 0.00018069015325274888, 0.0, 0.0, 0.0, 0.003534839422419944)", -0.00152255218667, 0.00135849375359, 0.000385735152312, "(0.001, 0.0, 0.0, 0.0, 0.001, 0.0, 0.0, 0.0, 0.001)", -0.041661606432, 0.00582935079468, -0.129011797862, "(0.001, 0.0, 0.0, 0.0, 0.001, 0.0, 0.0, 0.0, 0.001)"
1637149727279969048, 20351, 1636513560, 701353073, base_link, -0.00807450249503, 0.00736348362817, -0.0267350494537, -0.999582822306, "(0.0001812398765466683, 0.0, 0.0, 0.0, 0.00018069015325274888, 0.0, 0.0, 0.0, 0.003534839422419944)", 0.00205528042538, 0.000664417989775, -0.000837732960228, "(0.001, 0.0, 0.0, 0.0, 0.001, 0.0, 0.0, 0.0, 0.001)", 0.108956158051, 0.0134002574422, 0.168397419876, "(0.001, 0.0, 0.0, 0.0, 0.001, 0.0, 0.0, 0.0, 0.001)"
1637149727298303639, 20352, 1636513560, 719738960, base_link, -0.00806709805732, 0.00737154725643, -0.0267376424495, -0.999582753301, "(0.0001812398765466683, 0.0, 0.0, 0.0, 0.00018069015325274888, 0.0, 0.0, 0.0, 0.003534839422419944)", -0.00139751552409, -0.00011598659646, 0.000358430967696, "(0.001, 0.0, 0.0, 0.0, 0.001, 0.0, 0.0, 0.0, 0.001)", -0.172687153274, 0.0462966184617, -0.278047376676, "(0.001, 0.0, 0.0, 0.0, 0.001, 0.0, 0.0, 0.0, 0.001)"
1637149727318701564, 20353, 1636513560, 740104913, base_link, -0.00806452697684, 0.00736241523638, -0.0267295736358, -0.999583057149, "(0.0001812398765466683, 0.0, 0.0, 0.0, 0.00018069015325274888, 0.0, 0.0, 0.0, 0.003534839422419944)", 0.000938227658962, 0.000362758624262, -0.00118448912803, "(0.001, 0.0, 0.0, 0.0, 0.001, 0.0, 0.0, 0.0, 0.001)", 0.14576946512, -0.0288584855536, 0.29831717689, "(0.001, 0.0, 0.0, 0.0, 0.001, 0.0, 0.0, 0.0, 0.001)"
1637149727337040199, 20354, 1636513560, 758455038, base_link, -0.0080801995448, 0.00737901808606, -0.0267279583741, -0.999582851348, "(0.0001812398765466683, 0.0, 0.0, 0.0, 0.00018069015325274888, 0.0, 0.0, 0.0, 0.003534839422419944)", 0.000982914775015, -0.00129685671468, -0.000548609649473, "(0.001, 0.0, 0.0, 0.0, 0.001, 0.0, 0.0, 0.0, 0.001)", -0.217312567194, 0.0463765694874, -0.246081117918, "(0.001, 0.0, 0.0, 0.0, 0.001, 0.0, 0.0, 0.0, 0.001)"
1637149727363987817, 20355, 1636513560, 779084920, base_link, -0.00805657629023, 0.0073708149815, -0.0267277803412, -0.999583107312, "(0.0001812398765466683, 0.0, 0.0, 0.0, 0.00018069015325274888, 0.0, 0.0, 0.0, 0.003534839422419944)", -0.00089268599012, 0.000196684472459, -0.000473992024526, "(0.001, 0.0, 0.0, 0.0, 0.001, 0.0, 0.0, 0.0, 0.001)", 0.113365571136, -0.0135146101892, 0.195994731017, "(0.001, 0.0, 0.0, 0.0, 0.001, 0.0, 0.0, 0.0, 0.001)"
1637149727378663708, 20356, 1636513560, 799993991, base_link, -0.00807452507696, 0.00738612462286, -0.0267141708553, -0.999583213286, "(0.0001812398765466683, 0.0, 0.0, 0.0, 0.00018069015325274888, 0.0, 0.0, 0.0, 0.003534839422419944)", 0.000694672231887, -0.00162985642412, -0.00180120406284, "(0.001, 0.0, 0.0, 0.0, 0.001, 0.0, 0.0, 0.0, 0.001)", -0.135018093, -0.0156587219365, -0.188330666546, "(0.001, 0.0, 0.0, 0.0, 0.001, 0.0, 0.0, 0.0, 0.001)"
1637149727398359384, 20357, 1636513560, 819643020, base_link, -0.00805601749223, 0.00738601467653, -0.0267188216201, -0.999583239125, "(0.0001812398765466683, 0.0, 0.0, 0.0, 0.00018069015325274888, 0.0, 0.0, 0.0, 0.003534839422419944)", -0.00142475328323, -0.00029464164386, -0.000108664319827, "(0.001, 0.0, 0.0, 0.0, 0.001, 0.0, 0.0, 0.0, 0.001)", 0.0513568884299, 0.00851189595415, -0.00522107922339, "(0.001, 0.0, 0.0, 0.0, 0.001, 0.0, 0.0, 0.0, 0.001)"
1637149727418009291, 20358, 1636513560, 839415073, base_link, -0.008093326625, 0.00739770469282, -0.0267052600885, -0.999583213701, "(0.0001812398765466683, 0.0, 0.0, 0.0, 0.00018069015325274888, 0.0, 0.0, 0.0, 0.003534839422419944)", 0.00410482451419, -0.00188221549651, -0.00181400427349, "(0.001, 0.0, 0.0, 0.0, 0.001, 0.0, 0.0, 0.0, 0.001)", -0.0265972104996, 0.0691542050935, -0.0933168543394, "(0.001, 0.0, 0.0, 0.0, 0.001, 0.0, 0.0, 0.0, 0.001)"
1637149727439011602, 20359, 1636513560, 860369920, base_link, -0.00810190104151, 0.00740896559476, -0.0267120567354, -0.999582879232, "(0.0001812398765466683, 0.0, 0.0, 0.0, 0.00018069015325274888, 0.0, 0.0, 0.0, 0.003534839422419944)", 0.00175700852349, -0.00113508198368, 0.000306129465066, "(0.001, 0.0, 0.0, 0.0, 0.001, 0.0, 0.0, 0.0, 0.001)", -0.104264895847, 0.1068113613, -0.227326245352, "(0.001, 0.0, 0.0, 0.0, 0.001, 0.0, 0.0, 0.0, 0.001)"
1637149727469153313, 20360, 1636513560, 878468990, base_link, -0.00813748399783, 0.00741982114563, -0.0267128011752, -0.999582489773, "(0.0001812398765466683, 0.0, 0.0, 0.0, 0.00018069015325274888, 0.0, 0.0, 0.0, 0.003534839422419944)", 0.00698356573306, -0.00328162202752, -3.20820565458e-05, "(0.001, 0.0, 0.0, 0.0, 0.001, 0.0, 0.0, 0.0, 0.001)", 0.146509468675, 0.18112396927, 0.0204120555229, "(0.001, 0.0, 0.0, 0.0, 0.001, 0.0, 0.0, 0.0, 0.001)"
1637149727480487989, 20361, 1636513560, 901678085, base_link, -0.00817689544856, 0.00744535678704, -0.0267207081845, -0.999581766939, "(0.0001812398765466683, 0.0, 0.0, 0.0, 0.00018069015325274888, 0.0, 0.0, 0.0, 0.003534839422419944)", 0.00448435027007, -0.00254011406995, 0.00128289395715, "(0.001, 0.0, 0.0, 0.0, 0.001, 0.0, 0.0, 0.0, 0.001)", -0.127974859313, 0.215958894133, -0.437860771994, "(0.001, 0.0, 0.0, 0.0, 0.001, 0.0, 0.0, 0.0, 0.001)"
1637149727498569876, 20362, 1636513560, 919764995, base_link, -0.00821817900678, 0.00747031168746, -0.0267379621073, -0.999580780807, "(0.0001812398765466683, 0.0, 0.0, 0.0, 0.00018069015325274888, 0.0, 0.0, 0.0, 0.003534839422419944)", 0.0107998872367, -0.00621138185366, 0.00233911423291, "(0.001, 0.0, 0.0, 0.0, 0.001, 0.0, 0.0, 0.0, 0.001)", 0.197513235059, 0.528192580328, 0.00211152502262, "(0.001, 0.0, 0.0, 0.0, 0.001, 0.0, 0.0, 0.0, 0.001)"
1637149727517852409, 20363, 1636513560, 938462018, base_link, -0.00829998494793, 0.00750600776442, -0.0267620642386, -0.999579192468, "(0.0001812398765466683, 0.0, 0.0, 0.0, 0.00018069015325274888, 0.0, 0.0, 0.0, 0.003534839422419944)", 0.00930703039019, -0.00459800595731, 0.00378537598, "(0.001, 0.0, 0.0, 0.0, 0.001, 0.0, 0.0, 0.0, 0.001)", -0.107424549802, 0.553613626594, -0.482112279164, "(0.001, 0.0, 0.0, 0.0, 0.001, 0.0, 0.0, 0.0, 0.001)"
1637149727537750630, 20364, 1636513560, 958746910, base_link, -0.00836698310921, 0.00753682257396, -0.0267779073481, -0.999577977737, "(0.0001812398765466683, 0.0, 0.0, 0.0, 0.00018069015325274888, 0.0, 0.0, 0.0, 0.003534839422419944)", 0.0170383956075, -0.00815739149275, 0.00398716537682, "(0.001, 0.0, 0.0, 0.0, 0.001, 0.0, 0.0, 0.0, 0.001)", 0.0985987495338, 1.09913256402, -0.0232711600834, "(0.001, 0.0, 0.0, 0.0, 0.001, 0.0, 0.0, 0.0, 0.001)"
1637149727600907702, 20365, 1636513560, 980185985, base_link, -0.00847087161237, 0.00756621311424, -0.0268005503775, -0.999576273854, "(0.0001812398765466683, 0.0, 0.0, 0.0, 0.00018069015325274888, 0.0, 0.0, 0.0, 0.003534839422419944)", 0.0139613702829, -0.00482231490624, 0.00368025692905, "(0.001, 0.0, 0.0, 0.0, 0.001, 0.0, 0.0, 0.0, 0.001)", -0.203152514818, 0.754899012255, -0.277506899755, "(0.001, 0.0, 0.0, 0.0, 0.001, 0.0, 0.0, 0.0, 0.001)"
1637149727600924396, 20366, 1636513560, 998404026, base_link, -0.00856208040612, 0.00759897284845, -0.0268210441731, -0.999574698549, "(0.0001812398765466683, 0.0, 0.0, 0.0, 0.00018069015325274888, 0.0, 0.0, 0.0, 0.003534839422419944)", 0.0219606104382, -0.00798176087736, 0.00470890099116, "(0.001, 0.0, 0.0, 0.0, 0.001, 0.0, 0.0, 0.0, 0.001)", 0.0269394732824, 1.44317258224, -0.0639937006937, "(0.001, 0.0, 0.0, 0.0, 0.001, 0.0, 0.0, 0.0, 0.001)"
1637149727600930087, 20367, 1636513561, 19566059, base_link, -0.008666775693, 0.00763719113128, -0.0268254398805, -0.999573387044, "(0.0001812398765466683, 0.0, 0.0, 0.0, 0.00018069015325274888, 0.0, 0.0, 0.0, 0.003534839422419944)", 0.0163638478917, -0.00573402457686, 0.0018861622778, "(0.001, 0.0, 0.0, 0.0, 0.001, 0.0, 0.0, 0.0, 0.001)", -0.378344511916, 1.01706633027, 0.035319962789, "(0.001, 0.0, 0.0, 0.0, 0.001, 0.0, 0.0, 0.0, 0.001)"
1637149727618611391, 20368, 1636513561, 39921998, base_link, -0.00874741111378, 0.0076771637817, -0.0268273900345, -0.999572326097, "(0.0001812398765466683, 0.0, 0.0, 0.0, 0.00018069015325274888, 0.0, 0.0, 0.0, 0.003534839422419944)", 0.0209718563499, -0.00998252459189, 0.000959538162649, "(0.001, 0.0, 0.0, 0.0, 0.001, 0.0, 0.0, 0.0, 0.001)", 0.0878598952092, 1.63050949804, -0.000742297711841, "(0.001, 0.0, 0.0, 0.0, 0.001, 0.0, 0.0, 0.0, 0.001)"
1637149727639742918, 20369, 1636513561, 59452056, base_link, -0.00884094207666, 0.00773799432195, -0.0268095351645, -0.999571513205, "(0.0001812398765466683, 0.0, 0.0, 0.0, 0.00018069015325274888, 0.0, 0.0, 0.0, 0.003534839422419944)", 0.0148683755902, -0.00845864823135, -0.00128839436797, "(0.001, 0.0, 0.0, 0.0, 0.001, 0.0, 0.0, 0.0, 0.001)", -0.455265901163, 1.13392930742, 0.265857808483, "(0.001, 0.0, 0.0, 0.0, 0.001, 0.0, 0.0, 0.0, 0.001)"
1637149727666059873, 20370, 1636513561, 80095052, base_link, -0.00890613840281, 0.00778844644594, -0.0267979501228, -0.999570853251, "(0.0001812398765466683, 0.0, 0.0, 0.0, 0.00018069015325274888, 0.0, 0.0, 0.0, 0.003534839422419944)", 0.0173297572437, -0.0132521020619, -0.00298560261983, "(0.001, 0.0, 0.0, 0.0, 0.001, 0.0, 0.0, 0.0, 0.001)", 0.206535745848, 1.74575269726, -0.0077895363128, "(0.001, 0.0, 0.0, 0.0, 0.001, 0.0, 0.0, 0.0, 0.001)"
1637149727677479055, 20371, 1636513561, 98840951, base_link, -0.00896411530254, 0.00785525995201, -0.0267719660233, -0.99957050845, "(0.0001812398765466683, 0.0, 0.0, 0.0, 0.00018069015325274888, 0.0, 0.0, 0.0, 0.003534839422419944)", 0.0108038232801, -0.00968008408223, -0.00303984726321, "(0.001, 0.0, 0.0, 0.0, 0.001, 0.0, 0.0, 0.0, 0.001)", -0.321082443155, 1.15215192032, 0.344014411201, "(0.001, 0.0, 0.0, 0.0, 0.001, 0.0, 0.0, 0.0, 0.001)"
1637149727697709480, 20372, 1636513561, 119081974, base_link, -0.00901204731196, 0.00791277430694, -0.0267542601289, -0.999570097878, "(0.0001812398765466683, 0.0, 0.0, 0.0, 0.00018069015325274888, 0.0, 0.0, 0.0, 0.003534839422419944)", 0.0119715447672, -0.014557235515, -0.00487967799736, "(0.001, 0.0, 0.0, 0.0, 0.001, 0.0, 0.0, 0.0, 0.001)", 0.230150089751, 1.83962981821, 0.0648389865906, "(0.001, 0.0, 0.0, 0.0, 0.001, 0.0, 0.0, 0.0, 0.001)"
1637149727718476045, 20373, 1636513561, 139889001, base_link, -0.00903832364586, 0.00798621449129, -0.0267285607636, -0.999569964096, "(0.0001812398765466683, 0.0, 0.0, 0.0, 0.00018069015325274888, 0.0, 0.0, 0.0, 0.003534839422419944)", 0.0061716717545, -0.0109454276192, -0.00359044830941, "(0.001, 0.0, 0.0, 0.0, 0.001, 0.0, 0.0, 0.0, 0.001)", -0.119762376482, 1.19928928955, 0.282507971797, "(0.001, 0.0, 0.0, 0.0, 0.001, 0.0, 0.0, 0.0, 0.001)"
1637149727737205062, 20374, 1636513561, 158373117, base_link, -0.00906387249323, 0.00802665773508, -0.0267145342708, -0.999569783777, "(0.0001812398765466683, 0.0, 0.0, 0.0, 0.00018069015325274888, 0.0, 0.0, 0.0, 0.003534839422419944)", 0.00705651955083, -0.0127455144781, -0.00428958616287, "(0.001, 0.0, 0.0, 0.0, 0.001, 0.0, 0.0, 0.0, 0.001)", 0.189699743861, 1.82360822408, 0.181772284452, "(0.001, 0.0, 0.0, 0.0, 0.001, 0.0, 0.0, 0.0, 0.001)"
1637149727762718316, 20375, 1636513561, 178867101, base_link, -0.00906066397459, 0.00809138323786, -0.0266914019077, -0.999569908986, "(0.0001812398765466683, 0.0, 0.0, 0.0, 0.00018069015325274888, 0.0, 0.0, 0.0, 0.003534839422419944)", 0.000988229117491, -0.00943705298806, -0.00342650044182, "(0.001, 0.0, 0.0, 0.0, 0.001, 0.0, 0.0, 0.0, 0.001)", 0.206323071997, 1.22448302415, 0.0619323633377, "(0.001, 0.0, 0.0, 0.0, 0.001, 0.0, 0.0, 0.0, 0.001)"
1637149727777305995, 20376, 1636513561, 198666095, base_link, -0.00906869770735, 0.00813827003692, -0.0266856782583, -0.999569608311, "(0.0001812398765466683, 0.0, 0.0, 0.0, 0.00018069015325274888, 0.0, 0.0, 0.0, 0.003534839422419944)", 0.00204154997069, -0.0125460281994, -0.00264706303211, "(0.001, 0.0, 0.0, 0.0, 0.001, 0.0, 0.0, 0.0, 0.001)", -0.0205096360717, 1.77507349243, 0.271683094634, "(0.001, 0.0, 0.0, 0.0, 0.001, 0.0, 0.0, 0.0, 0.001)"
1637149727797329337, 20377, 1636513561, 218723058, base_link, -0.00905486949141, 0.00818443697421, -0.0266730958726, -0.999569692561, "(0.0001812398765466683, 0.0, 0.0, 0.0, 0.00018069015325274888, 0.0, 0.0, 0.0, 0.003534839422419944)", -0.00230638509831, -0.00800773189759, -0.00204629586564, "(0.001, 0.0, 0.0, 0.0, 0.001, 0.0, 0.0, 0.0, 0.001)", 0.523618918592, 1.2125764372, -0.200009889499, "(0.001, 0.0, 0.0, 0.0, 0.001, 0.0, 0.0, 0.0, 0.001)"
1637149727818397088, 20378, 1636513561, 239584922, base_link, -0.00903857206185, 0.00823519087185, -0.0266692180497, -0.999569526674, "(0.0001812398765466683, 0.0, 0.0, 0.0, 0.00018069015325274888, 0.0, 0.0, 0.0, 0.003534839422419944)", -0.00254619947977, -0.0106989326757, -0.00126992435953, "(0.001, 0.0, 0.0, 0.0, 0.001, 0.0, 0.0, 0.0, 0.001)", -0.241105922272, 1.74278071591, 0.285111626625, "(0.001, 0.0, 0.0, 0.0, 0.001, 0.0, 0.0, 0.0, 0.001)"
1637149727838220745, 20379, 1636513561, 259594917, base_link, -0.00900022940333, 0.00826566429258, -0.0266714222563, -0.999569562311, "(0.0001812398765466683, 0.0, 0.0, 0.0, 0.00018069015325274888, 0.0, 0.0, 0.0, 0.003534839422419944)", -0.00521497156554, -0.00660604553123, -0.000334918704385, "(0.001, 0.0, 0.0, 0.0, 0.001, 0.0, 0.0, 0.0, 0.001)", 0.538461988975, 1.24429383057, -0.290225905484, "(0.001, 0.0, 0.0, 0.0, 0.001, 0.0, 0.0, 0.0, 0.001)"
1637149727865874085, 20380, 1636513561, 278542041, base_link, -0.00896909108813, 0.00832514768104, -0.026665017675, -0.99956951942, "(0.0001812398765466683, 0.0, 0.0, 0.0, 0.00018069015325274888, 0.0, 0.0, 0.0, 0.003534839422419944)", -0.00661133872197, -0.0109019396059, -0.000702267116771, "(0.001, 0.0, 0.0, 0.0, 0.001, 0.0, 0.0, 0.0, 0.001)", -0.246997762939, 1.7766186704, 0.202083458512, "(0.001, 0.0, 0.0, 0.0, 0.001, 0.0, 0.0, 0.0, 0.001)"
1637149727884203385, 20381, 1636513561, 304003953, base_link, -0.0089516309012, 0.00836461987303, -0.0266740163961, -0.999569106309, "(0.0001812398765466683, 0.0, 0.0, 0.0, 0.00018069015325274888, 0.0, 0.0, 0.0, 0.003534839422419944)", -0.0045412554381, -0.00703096224389, 0.000746027331657, "(0.001, 0.0, 0.0, 0.0, 0.001, 0.0, 0.0, 0.0, 0.001)", 0.256830761559, 1.18472596395, -0.205155155758, "(0.001, 0.0, 0.0, 0.0, 0.001, 0.0, 0.0, 0.0, 0.001)"
1637149727899474263, 20382, 1636513561, 320892095, base_link, -0.00889611678499, 0.00842526990352, -0.0266643049255, -0.999569351659, "(0.0002427390519162487, 0.0, 0.0, 0.0, 0.0002421135773517137, 0.0, 0.0, 0.0, 0.0036054432030668965)", -0.00972986561503, -0.0124410190356, -0.000661829671284, "(0.001, 0.0, 0.0, 0.0, 0.001, 0.0, 0.0, 0.0, 0.001)", -0.00856330186062, 1.75088441069, 0.0101876721196, "(0.001, 0.0, 0.0, 0.0, 0.001, 0.0, 0.0, 0.0, 0.001)"
1637149727917378370, 20383, 1636513561, 338670969, base_link, -0.00887073426167, 0.00847770466568, -0.0266702527865, -0.999568975216, "(0.00024273368321449384, 0.0, 0.0, 0.0, 0.00024210621578735214, 0.0, 0.0, 0.0, 0.0036054069659719468)", -0.00541964261322, -0.00799480448929, 0.000664004115182, "(0.001, 0.0, 0.0, 0.0, 0.001, 0.0, 0.0, 0.0, 0.001)", -0.113100829892, 1.22773791941, -0.0621224326402, "(0.001, 0.0, 0.0, 0.0, 0.001, 0.0, 0.0, 0.0, 0.001)"
1637149727937301798, 20384, 1636513561, 358580112, base_link, -0.00881417844983, 0.00854621952432, -0.0266537995601, -0.999569330942, "(0.00024273368321449384, 0.0, 0.0, 0.0, 0.00024210621578735214, 0.0, 0.0, 0.0, 0.0036054069659719468)", -0.0118419565567, -0.0149071021331, -0.00200239410664, "(0.001, 0.0, 0.0, 0.0, 0.001, 0.0, 0.0, 0.0, 0.001)", 0.0847925565231, 1.82564322928, -0.192652833504, "(0.001, 0.0, 0.0, 0.0, 0.001, 0.0, 0.0, 0.0, 0.001)"
1637149727973114926, 20385, 1636513561, 379987001, base_link, -0.00877937797427, 0.00861967297237, -0.0266367275109, -0.999569461572, "(0.00024273368321449384, 0.0, 0.0, 0.0, 0.00024210621578735214, 0.0, 0.0, 0.0, 0.0036054069659719468)", -0.00593249918348, -0.0105360303758, -0.00186648321625, "(0.001, 0.0, 0.0, 0.0, 0.001, 0.0, 0.0, 0.0, 0.001)", -0.448731606518, 1.19000528608, 0.122225854603, "(0.001, 0.0, 0.0, 0.0, 0.001, 0.0, 0.0, 0.0, 0.001)"
1637149727977049845, 20386, 1636513561, 398437023, base_link, -0.00872555586589, 0.00869967120088, -0.0266117097142, -0.999569906161, "(0.00024273368321449384, 0.0, 0.0, 0.0, 0.00024210621578735214, 0.0, 0.0, 0.0, 0.0036054069659719468)", -0.0123019594106, -0.0180781970039, -0.00477920587978, "(0.001, 0.0, 0.0, 0.0, 0.001, 0.0, 0.0, 0.0, 0.001)", 0.115014919097, 1.9323497323, -0.30689378117, "(0.001, 0.0, 0.0, 0.0, 0.001, 0.0, 0.0, 0.0, 0.001)"
1637149727997816263, 20387, 1636513561, 419154882, base_link, -0.00867480387891, 0.00880031715603, -0.0265716111619, -0.999570533617, "(0.00024273368321449384, 0.0, 0.0, 0.0, 0.00024210621578735214, 0.0, 0.0, 0.0, 0.0036054069659719468)", -0.0080960360049, -0.0142103121895, -0.00485766417713, "(0.001, 0.0, 0.0, 0.0, 0.001, 0.0, 0.0, 0.0, 0.001)", -0.647365933567, 1.23607759544, 0.13914881103, "(0.001, 0.0, 0.0, 0.0, 0.001, 0.0, 0.0, 0.0, 0.001)"
1637149728017810285, 20388, 1636513561, 439038991, base_link, -0.00862639228817, 0.00890341243261, -0.0265318306885, -0.999571096303, "(0.00024273368321449384, 0.0, 0.0, 0.0, 0.00024210621578735214, 0.0, 0.0, 0.0, 0.0036054069659719468)", -0.0125697648778, -0.0237037914485, -0.00865591223979, "(0.001, 0.0, 0.0, 0.0, 0.001, 0.0, 0.0, 0.0, 0.001)", -0.011797677619, 1.99659692066, -0.25399191205, "(0.001, 0.0, 0.0, 0.0, 0.001, 0.0, 0.0, 0.0, 0.001)"
1637149728037273459, 20389, 1636513561, 458705902, base_link, -0.00856356412227, 0.0090476181884, -0.0264676578778, -0.999572042957, "(0.00024273368321449384, 0.0, 0.0, 0.0, 0.00024210621578735214, 0.0, 0.0, 0.0, 0.0036054069659719468)", -0.00976286715666, -0.0201364765985, -0.00850010691584, "(0.001, 0.0, 0.0, 0.0, 0.001, 0.0, 0.0, 0.0, 0.001)", -0.574182393725, 1.37151523128, 0.0645421317105, "(0.001, 0.0, 0.0, 0.0, 0.001, 0.0, 0.0, 0.0, 0.001)"
1637149728072697180, 20390, 1636513561, 478930950, base_link, -0.00850304625449, 0.00920322626055, -0.0264096503482, -0.999572673296, "(0.00024273368321449384, 0.0, 0.0, 0.0, 0.00024210621578735214, 0.0, 0.0, 0.0, 0.0036054069659719468)", -0.0156223207568, -0.0342211533763, -0.0133924940076, "(0.001, 0.0, 0.0, 0.0, 0.001, 0.0, 0.0, 0.0, 0.001)", -0.394863211545, 2.09150349185, -0.18058086746, "(0.001, 0.0, 0.0, 0.0, 0.001, 0.0, 0.0, 0.0, 0.001)"
1637149728077361757, 20391, 1636513561, 498790025, base_link, -0.00841046566436, 0.00939595717134, -0.0263160036041, -0.999574133324, "(0.00024273368321449384, 0.0, 0.0, 0.0, 0.00024210621578735214, 0.0, 0.0, 0.0, 0.0036054069659719468)", -0.0134707187422, -0.0281138185575, -0.0125123983098, "(0.001, 0.0, 0.0, 0.0, 0.001, 0.0, 0.0, 0.0, 0.001)", -0.313481904658, 1.50076513076, -0.0810494675597, "(0.001, 0.0, 0.0, 0.0, 0.001, 0.0, 0.0, 0.0, 0.001)"
1637149728097072710, 20392, 1636513561, 518500089, base_link, -0.00834760325035, 0.00960368846095, -0.0262249532272, -0.999575078979, "(0.00024273368321449384, 0.0, 0.0, 0.0, 0.00024210621578735214, 0.0, 0.0, 0.0, 0.0036054069659719468)", -0.0186662289706, -0.0460506984753, -0.0199865025219, "(0.001, 0.0, 0.0, 0.0, 0.001, 0.0, 0.0, 0.0, 0.001)", -0.716909003478, 2.08660358344, -0.0475406597728, "(0.001, 0.0, 0.0, 0.0, 0.001, 0.0, 0.0, 0.0, 0.001)"
1637149728118267289, 20393, 1636513561, 539654970, base_link, -0.00826827313758, 0.00983813864801, -0.0261050368964, -0.999576597233, "(0.00024273368321449384, 0.0, 0.0, 0.0, 0.00024210621578735214, 0.0, 0.0, 0.0, 0.0036054069659719468)", -0.0136326991876, -0.0357605955859, -0.0171481022572, "(0.001, 0.0, 0.0, 0.0, 0.001, 0.0, 0.0, 0.0, 0.001)", 0.0965306889754, 1.57215785781, -0.200659224372, "(0.001, 0.0, 0.0, 0.0, 0.001, 0.0, 0.0, 0.0, 0.001)"
1637149728138310259, 20394, 1636513561, 559782028, base_link, -0.00817779712558, 0.0100903944933, -0.0259609346372, -0.999578579926, "(0.00024273368321449384, 0.0, 0.0, 0.0, 0.00024210621578735214, 0.0, 0.0, 0.0, 0.0036054069659719468)", -0.0214553957409, -0.0565496881706, -0.0301080805581, "(0.001, 0.0, 0.0, 0.0, 0.001, 0.0, 0.0, 0.0, 0.001)", -0.801511147428, 2.2653401829, 0.111259232778, "(0.001, 0.0, 0.0, 0.0, 0.001, 0.0, 0.0, 0.0, 0.001)"
1637149728171793443, 20395, 1636513561, 579747915, base_link, -0.00809944021024, 0.0103549017028, -0.0258074746964, -0.999580486669, "(0.00024273368321449384, 0.0, 0.0, 0.0, 0.00024210621578735214, 0.0, 0.0, 0.0, 0.0036054069659719468)", -0.0153096986506, -0.0415229421498, -0.0231973923665, "(0.001, 0.0, 0.0, 0.0, 0.001, 0.0, 0.0, 0.0, 0.001)", 0.267025678995, 1.50503608882, -0.348003465831, "(0.001, 0.0, 0.0, 0.0, 0.001, 0.0, 0.0, 0.0, 0.001)"
1637149728177709591, 20396, 1636513561, 599078893, base_link, -0.00799489084195, 0.0106475203077, -0.0256109954475, -0.999583307656, "(0.00024273368321449384, 0.0, 0.0, 0.0, 0.00024210621578735214, 0.0, 0.0, 0.0, 0.0036054069659719468)", -0.0235731822987, -0.0661768143336, -0.0409670522898, "(0.001, 0.0, 0.0, 0.0, 0.001, 0.0, 0.0, 0.0, 0.001)", -0.580013304183, 2.33624089656, 0.117710149566, "(0.001, 0.0, 0.0, 0.0, 0.001, 0.0, 0.0, 0.0, 0.001)"
1637149728199217958, 20397, 1636513561, 620503902, base_link, -0.00790698185121, 0.0109358653135, -0.0254176166007, -0.999585829859, "(0.00024273368321449384, 0.0, 0.0, 0.0, 0.00024210621578735214, 0.0, 0.0, 0.0, 0.0036054069659719468)", -0.0168486499019, -0.0458117986709, -0.0298856528957, "(0.001, 0.0, 0.0, 0.0, 0.001, 0.0, 0.0, 0.0, 0.001)", 0.301552884198, 1.48231535799, -0.257906661704, "(0.001, 0.0, 0.0, 0.0, 0.001, 0.0, 0.0, 0.0, 0.001)"
1637149728217693415, 20398, 1636513561, 639065027, base_link, -0.00780133708391, 0.011255622569, -0.0251740252163, -0.99958927493, "(0.00024273368321449384, 0.0, 0.0, 0.0, 0.00024210621578735214, 0.0, 0.0, 0.0, 0.0036054069659719468)", -0.0259386994699, -0.0731751822717, -0.0516095257146, "(0.001, 0.0, 0.0, 0.0, 0.001, 0.0, 0.0, 0.0, 0.001)", -0.112676635603, 2.36815533857, 0.0116623667745, "(0.001, 0.0, 0.0, 0.0, 0.001, 0.0, 0.0, 0.0, 0.001)"
1637149728240126160, 20399, 1636513561, 659122943, base_link, -0.00772205428552, 0.0115391272776, -0.0249416714654, -0.999592482687, "(0.00024273368321449384, 0.0, 0.0, 0.0, 0.00024210621578735214, 0.0, 0.0, 0.0, 0.0036054069659719468)", -0.0157867879282, -0.0467612198658, -0.0364972090142, "(0.001, 0.0, 0.0, 0.0, 0.001, 0.0, 0.0, 0.0, 0.001)", 0.392174028078, 1.4825848554, -0.0783008495387, "(0.001, 0.0, 0.0, 0.0, 0.001, 0.0, 0.0, 0.0, 0.001)"
1637149728268440016, 20400, 1636513561, 679706096, base_link, -0.00761198128488, 0.0118071542666, -0.0246725381499, -0.999596876101, "(0.00024273368321449384, 0.0, 0.0, 0.0, 0.00024210621578735214, 0.0, 0.0, 0.0, 0.0036054069659719468)", -0.0264701315793, -0.0672719220988, -0.0600971799629, "(0.001, 0.0, 0.0, 0.0, 0.001, 0.0, 0.0, 0.0, 0.001)", 0.589624770649, 2.21080001953, -0.15914426749, "(0.001, 0.0, 0.0, 0.0, 0.001, 0.0, 0.0, 0.0, 0.001)"
1637149728277112559, 20401, 1636513561, 698621988, base_link, -0.00752525375747, 0.0120486244095, -0.0244091253922, -0.999601118348, "(0.00024273368321449384, 0.0, 0.0, 0.0, 0.00024210621578735214, 0.0, 0.0, 0.0, 0.0036054069659719468)", -0.0158404414926, -0.0399949287007, -0.0409055599136, "(0.001, 0.0, 0.0, 0.0, 0.001, 0.0, 0.0, 0.0, 0.001)", 0.20266457072, 1.36134822604, 0.086883446223, "(0.001, 0.0, 0.0, 0.0, 0.001, 0.0, 0.0, 0.0, 0.001)"
1637149728298104356, 20402, 1636513561, 719480037, base_link, -0.00741327956749, 0.0122901541644, -0.0241254781355, -0.999605900694, "(0.00024273368321449384, 0.0, 0.0, 0.0, 0.00024210621578735214, 0.0, 0.0, 0.0, 0.0036054069659719468)", -0.0273116204916, -0.0592397064809, -0.0654347437606, "(0.001, 0.0, 0.0, 0.0, 0.001, 0.0, 0.0, 0.0, 0.001)", 0.954681699544, 2.12494485412, -0.148259256888, "(0.001, 0.0, 0.0, 0.0, 0.001, 0.0, 0.0, 0.0, 0.001)"
1637149728318488288, 20403, 1636513561, 739883899, base_link, -0.00731001595004, 0.0125148190007, -0.0238412874323, -0.999610692213, "(0.00024273368321449384, 0.0, 0.0, 0.0, 0.00024210621578735214, 0.0, 0.0, 0.0, 0.0036054069659719468)", -0.0170428446608, -0.0364655952577, -0.0439259034898, "(0.001, 0.0, 0.0, 0.0, 0.001, 0.0, 0.0, 0.0, 0.001)", -0.0374416293316, 1.30320885405, 0.332939669275, "(0.001, 0.0, 0.0, 0.0, 0.001, 0.0, 0.0, 0.0, 0.001)"
1637149728337219326, 20404, 1636513561, 758542060, base_link, -0.00718692949134, 0.0127361891807, -0.0235443216981, -0.999615827428, "(0.00024273368321449384, 0.0, 0.0, 0.0, 0.00024210621578735214, 0.0, 0.0, 0.0, 0.0036054069659719468)", -0.0303350900313, -0.0550168513252, -0.0695125283248, "(0.001, 0.0, 0.0, 0.0, 0.001, 0.0, 0.0, 0.0, 0.001)", 1.07630459979, 1.97751406519, -0.0803615596429, "(0.001, 0.0, 0.0, 0.0, 0.001, 0.0, 0.0, 0.0, 0.001)"
1637149728365627321, 20405, 1636513561, 780432939, base_link, -0.00703509646343, 0.0129173473626, -0.0232355362576, -0.99962180819, "(0.00024273368321449384, 0.0, 0.0, 0.0, 0.00024210621578735214, 0.0, 0.0, 0.0, 0.0036054069659719468)", -0.0227345137426, -0.0310002371668, -0.0475196429792, "(0.001, 0.0, 0.0, 0.0, 0.001, 0.0, 0.0, 0.0, 0.001)", 0.267414013644, 1.14918067418, 0.435597746745, "(0.001, 0.0, 0.0, 0.0, 0.001, 0.0, 0.0, 0.0, 0.001)"
1637149728378379402, 20406, 1636513561, 799753904, base_link, -0.00689941459619, 0.0130251928274, -0.0229514954772, -0.99962791642, "(0.00024273368321449384, 0.0, 0.0, 0.0, 0.00024210621578735214, 0.0, 0.0, 0.0, 0.0036054069659719468)", -0.035856199128, -0.0355598317728, -0.0700394481937, "(0.001, 0.0, 0.0, 0.0, 0.001, 0.0, 0.0, 0.0, 0.001)", 1.51418682795, 1.32222094722, 0.0555157764064, "(0.001, 0.0, 0.0, 0.0, 0.001, 0.0, 0.0, 0.0, 0.001)"
1637149728397195890, 20407, 1636513561, 818614959, base_link, -0.00673882928757, 0.0130907846488, -0.0226230183987, -0.99963564291, "(0.00024273368321449384, 0.0, 0.0, 0.0, 0.00024210621578735214, 0.0, 0.0, 0.0, 0.0036054069659719468)", -0.0247012640717, -0.014065235676, -0.04940849522, "(0.001, 0.0, 0.0, 0.0, 0.001, 0.0, 0.0, 0.0, 0.001)", 0.472647433139, 0.762002489849, 0.415535009514, "(0.001, 0.0, 0.0, 0.0, 0.001, 0.0, 0.0, 0.0, 0.001)"
1637149728417279664, 20408, 1636513561, 838804006, base_link, -0.00659894410789, 0.0130580280898, -0.0223031099311, -0.999644193264, "(0.00024273368321449384, 0.0, 0.0, 0.0, 0.00024210621578735214, 0.0, 0.0, 0.0, 0.0036054069659719468)", -0.0367584716878, -0.00483887331422, -0.0762022707483, "(0.001, 0.0, 0.0, 0.0, 0.001, 0.0, 0.0, 0.0, 0.001)", 1.53811179145, 1.16722854384, 0.188136984994, "(0.001, 0.0, 0.0, 0.0, 0.001, 0.0, 0.0, 0.0, 0.001)"
1637149728438911894, 20409, 1636513561, 860287904, base_link, -0.00644896823216, 0.0129971712959, -0.0219509162731, -0.99965376087, "(0.00024273368321449384, 0.0, 0.0, 0.0, 0.00024210621578735214, 0.0, 0.0, 0.0, 0.0036054069659719468)", -0.0239357000165, 0.00660884756122, -0.0540833667328, "(0.001, 0.0, 0.0, 0.0, 0.001, 0.0, 0.0, 0.0, 0.001)", 0.454734970268, 0.670582003625, 0.192420402833, "(0.001, 0.0, 0.0, 0.0, 0.001, 0.0, 0.0, 0.0, 0.001)"
1637149728462917758, 20410, 1636513561, 878319025, base_link, -0.00632734866557, 0.0128658583925, -0.0215905740245, -0.99966408431, "(0.00024273368321449384, 0.0, 0.0, 0.0, 0.00024210621578735214, 0.0, 0.0, 0.0, 0.0036054069659719468)", -0.0324734843107, 0.0219696789406, -0.0839689842664, "(0.001, 0.0, 0.0, 0.0, 0.001, 0.0, 0.0, 0.0, 0.001)", 0.889546924513, 0.807057320886, 0.123568942932, "(0.001, 0.0, 0.0, 0.0, 0.001, 0.0, 0.0, 0.0, 0.001)"
1637149728477491977, 20411, 1636513561, 898900032, base_link, -0.00620068925112, 0.012780663819, -0.0211951207681, -0.999674433474, "(0.00024273368321449384, 0.0, 0.0, 0.0, 0.00024210621578735214, 0.0, 0.0, 0.0, 0.0036054069659719468)", -0.0210571345215, 0.015488845581, -0.0608992540442, "(0.001, 0.0, 0.0, 0.0, 0.001, 0.0, 0.0, 0.0, 0.001)", 0.318589625113, 0.716636090072, -0.030421716131, "(0.001, 0.0, 0.0, 0.0, 0.001, 0.0, 0.0, 0.0, 0.001)"
1637149728497883264, 20412, 1636513561, 919346094, base_link, -0.00609407011599, 0.0126533303631, -0.020759710402, -0.999685845636, "(0.00024273368321449384, 0.0, 0.0, 0.0, 0.00024210621578735214, 0.0, 0.0, 0.0, 0.0036054069659719468)", -0.028194539856, 0.0272540867376, -0.0983317884545, "(0.001, 0.0, 0.0, 0.0, 0.001, 0.0, 0.0, 0.0, 0.001)", 0.110844649452, 0.85341188484, 0.142009982669, "(0.001, 0.0, 0.0, 0.0, 0.001, 0.0, 0.0, 0.0, 0.001)"
1637149728517237544, 20413, 1636513561, 938695907, base_link, -0.00600477273554, 0.0125597395773, -0.0202958116163, -0.999697091962, "(0.00024273368321449384, 0.0, 0.0, 0.0, 0.00024210621578735214, 0.0, 0.0, 0.0, 0.0036054069659719468)", -0.0173189277911, 0.0157088456021, -0.0717593808273, "(0.001, 0.0, 0.0, 0.0, 0.001, 0.0, 0.0, 0.0, 0.001)", 0.480578277307, 0.597179445151, -0.35869086302, "(0.001, 0.0, 0.0, 0.0, 0.001, 0.0, 0.0, 0.0, 0.001)"
1637149728537755209, 20414, 1636513561, 959084987, base_link, -0.00600477273554, 0.0125597395773, -0.0202958116163, -0.999697091962, "(0.00024273368321449384, 0.0, 0.0, 0.0, 0.00024210621578735214, 0.0, 0.0, 0.0, 0.0036054069659719468)", -0.0176124523476, 0.0242006296897, -0.114167664498, "(0.001, 0.0, 0.0, 0.0, 0.001, 0.0, 0.0, 0.0, 0.001)", -0.22271090556, 1.05132869735, 0.0844793847073, "(0.001, 0.0, 0.0, 0.0, 0.001, 0.0, 0.0, 0.0, 0.001)"
1637149728570871083, 20415, 1636513561, 980916976, base_link, -0.00592678466453, 0.0123340993536, -0.0192530001923, -0.999720993678, "(0.00024273368321449384, 0.0, 0.0, 0.0, 0.00024210621578735214, 0.0, 0.0, 0.0, 0.0036054069659719468)", -0.00835273413979, 0.0175010682181, -0.0837646080523, "(0.001, 0.0, 0.0, 0.0, 0.001, 0.0, 0.0, 0.0, 0.001)", 0.663681683244, 0.681061991976, -0.521670603217, "(0.001, 0.0, 0.0, 0.0, 0.001, 0.0, 0.0, 0.0, 0.001)"
1637149728577235693, 20416, 1636513561, 998514890, base_link, -0.00592327692867, 0.0121979639449, -0.0186459199652, -0.99973419174, "(0.00024273368321449384, 0.0, 0.0, 0.0, 0.00024210621578735214, 0.0, 0.0, 0.0, 0.0036054069659719468)", -0.00447279852687, 0.0304394333681, -0.136497599451, "(0.001, 0.0, 0.0, 0.0, 0.001, 0.0, 0.0, 0.0, 0.001)", -0.331031649865, 1.16174309954, -0.121958480135, "(0.001, 0.0, 0.0, 0.0, 0.001, 0.0, 0.0, 0.0, 0.001)"
1637149728598149672, 20417, 1636513562, 19521951, base_link, -0.00593583209669, 0.012073538222, -0.0180348666556, -0.999746837533, "(0.00024273368321449384, 0.0, 0.0, 0.0, 0.00024210621578735214, 0.0, 0.0, 0.0, 0.0036054069659719468)", -0.000734834155345, 0.0194973305814, -0.0967623514668, "(0.001, 0.0, 0.0, 0.0, 0.001, 0.0, 0.0, 0.0, 0.001)", 0.356628394087, 0.838845872138, -0.461056343093, "(0.001, 0.0, 0.0, 0.0, 0.001, 0.0, 0.0, 0.0, 0.001)"
1637149728618328450, 20418, 1636513562, 39665937, base_link, -0.0059631838224, 0.0119548455042, -0.0173732044148, -0.999759818094, "(0.00024273368321449384, 0.0, 0.0, 0.0, 0.00024210621578735214, 0.0, 0.0, 0.0, 0.0036054069659719468)", 0.0026506419199, 0.0282977871895, -0.152632938727, "(0.001, 0.0, 0.0, 0.0, 0.001, 0.0, 0.0, 0.0, 0.001)", -0.0865121308913, 1.37840093873, -0.324173568735, "(0.001, 0.0, 0.0, 0.0, 0.001, 0.0, 0.0, 0.0, 0.001)"
1637149728637756486, 20419, 1636513562, 59103965, base_link, -0.006017890868, 0.0118047879782, -0.0167084428835, -0.999772604099, "(0.00024273368321449384, 0.0, 0.0, 0.0, 0.00024210621578735214, 0.0, 0.0, 0.0, 0.0036054069659719468)", 0.00573280740826, 0.0212709701849, -0.105492582342, "(0.001, 0.0, 0.0, 0.0, 0.001, 0.0, 0.0, 0.0, 0.001)", 0.211429087206, 1.01114031045, -0.160034152928, "(0.001, 0.0, 0.0, 0.0, 0.001, 0.0, 0.0, 0.0, 0.001)"
1637149728667442776, 20420, 1636513562, 80130100, base_link, -0.00604372696391, 0.0116562921988, -0.0160245354514, -0.999785386211, "(0.00024273368321449384, 0.0, 0.0, 0.0, 0.00024210621578735214, 0.0, 0.0, 0.0, 0.0036054069659719468)", 0.00631136927679, 0.0338391567606, -0.162488256612, "(0.001, 0.0, 0.0, 0.0, 0.001, 0.0, 0.0, 0.0, 0.001)", 0.50663619061, 1.52961054272, -0.290833162961, "(0.001, 0.0, 0.0, 0.0, 0.001, 0.0, 0.0, 0.0, 0.001)"
1637149728677668472, 20421, 1636513562, 99092960, base_link, -0.00608017545928, 0.011497469555, -0.0153409179847, -0.999797727491, "(0.00024273368321449384, 0.0, 0.0, 0.0, 0.00024210621578735214, 0.0, 0.0, 0.0, 0.0036054069659719468)", 0.00575402923544, 0.0244157780452, -0.108582313406, "(0.001, 0.0, 0.0, 0.0, 0.001, 0.0, 0.0, 0.0, 0.001)", -0.142278238485, 1.13723820931, 0.163000341915, "(0.001, 0.0, 0.0, 0.0, 0.001, 0.0, 0.0, 0.0, 0.001)"
1637149728697121751, 20422, 1636513562, 118561029, base_link, -0.00608712137132, 0.0113494266536, -0.0146470383299, -0.999809782777, "(0.00024273368321449384, 0.0, 0.0, 0.0, 0.00024210621578735214, 0.0, 0.0, 0.0, 0.0036054069659719468)", 0.0025722225932, 0.0346720896562, -0.166078988622, "(0.001, 0.0, 0.0, 0.0, 0.001, 0.0, 0.0, 0.0, 0.001)", 0.544352709269, 1.57970884291, -0.142543665946, "(0.001, 0.0, 0.0, 0.0, 0.001, 0.0, 0.0, 0.0, 0.001)"
1637149728717419924, 20423, 1636513562, 138748884, base_link, -0.00611291102329, 0.0112609774362, -0.0139624131977, -0.999820420737, "(0.00024273368321449384, 0.0, 0.0, 0.0, 0.00024210621578735214, 0.0, 0.0, 0.0, 0.0036054069659719468)", 0.00329500595476, 0.0180667519885, -0.109655857649, "(0.001, 0.0, 0.0, 0.0, 0.001, 0.0, 0.0, 0.0, 0.001)", -0.334224005856, 1.09470862421, 0.169636178371, "(0.001, 0.0, 0.0, 0.0, 0.001, 0.0, 0.0, 0.0, 0.001)"
1637149728738271671, 20424, 1636513562, 159600019, base_link, -0.00611593690995, 0.011175891611, -0.0132739264069, -0.999830734495, "(0.00024273368321449384, 0.0, 0.0, 0.0, 0.00024210621578735214, 0.0, 0.0, 0.0, 0.0036054069659719468)", 0.00105771135495, 0.0217386478861, -0.165127423565, "(0.001, 0.0, 0.0, 0.0, 0.001, 0.0, 0.0, 0.0, 0.001)", 0.146687393293, 1.7105837408, 0.122546574349, "(0.001, 0.0, 0.0, 0.0, 0.001, 0.0, 0.0, 0.0, 0.001)"
1637149728766614366, 20425, 1636513562, 179791927, base_link, -0.00607529049128, 0.0111153959555, -0.0125622112319, -0.99984085217, "(0.00024273368321449384, 0.0, 0.0, 0.0, 0.00024210621578735214, 0.0, 0.0, 0.0, 0.0036054069659719468)", -0.00410832381932, 0.0101702178545, -0.112299759994, "(0.001, 0.0, 0.0, 0.0, 0.001, 0.0, 0.0, 0.0, 0.001)", 0.0227557565095, 1.08937368464, 0.177147458387, "(0.001, 0.0, 0.0, 0.0, 0.001, 0.0, 0.0, 0.0, 0.001)"
1637149728777128637, 20426, 1636513562, 198529958, base_link, -0.00606068584362, 0.0110677098117, -0.0118356806751, -0.999850334075, "(0.00024273368321449384, 0.0, 0.0, 0.0, 0.00024210621578735214, 0.0, 0.0, 0.0, 0.0036054069659719468)", -0.0058185023841, 0.01373684926, -0.17124382523, "(0.001, 0.0, 0.0, 0.0, 0.001, 0.0, 0.0, 0.0, 0.001)", -0.178113871105, 1.65794840082, 0.278849915664, "(0.001, 0.0, 0.0, 0.0, 0.001, 0.0, 0.0, 0.0, 0.001)"
1637149728798425480, 20427, 1636513562, 219813108, base_link, -0.00603382778983, 0.0109897370416, -0.0110825314988, -0.999859988247, "(0.00024273368321449384, 0.0, 0.0, 0.0, 0.00024210621578735214, 0.0, 0.0, 0.0, 0.0036054069659719468)", -0.00604071918472, 0.00956056002387, -0.119285324183, "(0.001, 0.0, 0.0, 0.0, 0.001, 0.0, 0.0, 0.0, 0.001)", 0.569625223338, 0.844788765634, -0.0376226915966, "(0.001, 0.0, 0.0, 0.0, 0.001, 0.0, 0.0, 0.0, 0.001)"
1637149728817494920, 20428, 1636513562, 238677024, base_link, -0.00600950112549, 0.0109241117741, -0.0102986939697, -0.999869234741, "(0.00024273368321449384, 0.0, 0.0, 0.0, 0.00024210621578735214, 0.0, 0.0, 0.0, 0.0036054069659719468)", -0.0070844659144, 0.015767595601, -0.182979365075, "(0.001, 0.0, 0.0, 0.0, 0.001, 0.0, 0.0, 0.0, 0.001)", -0.312373847511, 1.4347385115, 0.203675360596, "(0.001, 0.0, 0.0, 0.0, 0.001, 0.0, 0.0, 0.0, 0.001)"
1637149728838755433, 20429, 1636513562, 259994029, base_link, -0.00596152917138, 0.0108866838822, -0.00948540226064, -0.999877976269, "(0.00024273368321449384, 0.0, 0.0, 0.0, 0.00024210621578735214, 0.0, 0.0, 0.0, 0.0036054069659719468)", -0.00770358591837, 0.00717025551196, -0.128056842021, "(0.001, 0.0, 0.0, 0.0, 0.001, 0.0, 0.0, 0.0, 0.001)", -0.101774682141, 1.17726791042, 0.028882337628, "(0.001, 0.0, 0.0, 0.0, 0.001, 0.0, 0.0, 0.0, 0.001)"
1637149728863976154, 20430, 1636513562, 278304100, base_link, -0.00589614043101, 0.0108967277113, -0.00859267355935, -0.999886324946, "(0.00024273368321449384, 0.0, 0.0, 0.0, 0.00024210621578735214, 0.0, 0.0, 0.0, 0.0036054069659719468)", -0.0154274322435, 0.00261728354154, -0.203876809156, "(0.001, 0.0, 0.0, 0.0, 0.001, 0.0, 0.0, 0.0, 0.001)", -0.450668427875, 1.45966947108, 0.210230829247, "(0.001, 0.0, 0.0, 0.0, 0.001, 0.0, 0.0, 0.0, 0.001)"
1637149728881466030, 20431, 1636513562, 302541017, base_link, -0.00589614043101, 0.0108967277113, -0.00859267355935, -0.999886324946, "(0.00024273368321449384, 0.0, 0.0, 0.0, 0.00024210621578735214, 0.0, 0.0, 0.0, 0.0036054069659719468)", -0.0110631734484, -0.00376631281063, -0.142975484308, "(0.001, 0.0, 0.0, 0.0, 0.001, 0.0, 0.0, 0.0, 0.001)", -0.45982188598, 0.979570833181, 0.257551012332, "(0.001, 0.0, 0.0, 0.0, 0.001, 0.0, 0.0, 0.0, 0.001)"
1637149728898687457, 20432, 1636513562, 318861007, base_link, -0.00572098928495, 0.0110176592458, -0.00667979173681, -0.999900625987, "(0.00024273368321449384, 0.0, 0.0, 0.0, 0.00024210621578735214, 0.0, 0.0, 0.0, 0.0036054069659719468)", -0.0249340724263, -0.0153725040055, -0.22880698325, "(0.001, 0.0, 0.0, 0.0, 0.001, 0.0, 0.0, 0.0, 0.001)", -0.374703430188, 1.60022902665, -0.0473834012663, "(0.001, 0.0, 0.0, 0.0, 0.001, 0.0, 0.0, 0.0, 0.001)"
1637149728918129040, 20433, 1636513562, 338478088, base_link, -0.00561953029362, 0.0111086609762, -0.00564021800495, -0.999906598874, "(0.0007731550343379225, 0.0, 0.0, 0.0, 0.0007723716186005536, 0.0, 0.0, 0.0, 0.0041476654734973195)", -0.0173338072913, -0.0139612395395, -0.161778613655, "(0.001, 0.0, 0.0, 0.0, 0.001, 0.0, 0.0, 0.0, 0.001)", -0.344962921115, 1.09119463543, 0.274395999822, "(0.001, 0.0, 0.0, 0.0, 0.001, 0.0, 0.0, 0.0, 0.001)"
1637149728937385287, 20434, 1636513562, 358628034, base_link, -0.00552383186532, 0.0111200047031, -0.00454943211166, -0.9999125639, "(0.0007731550343379225, 0.0, 0.0, 0.0, 0.0007723716186005536, 0.0, 0.0, 0.0, 0.0041476654734973195)", -0.0273757890338, -0.0124429870276, -0.254071569322, "(0.001, 0.0, 0.0, 0.0, 0.001, 0.0, 0.0, 0.0, 0.001)", 0.847149288947, 1.23511805229, -0.179688617738, "(0.001, 0.0, 0.0, 0.0, 0.001, 0.0, 0.0, 0.0, 0.001)"
1637149728971345285, 20435, 1636513562, 379903078, base_link, -0.00552383186532, 0.0111200047031, -0.00454943211166, -0.9999125639, "(0.0007731550343379225, 0.0, 0.0, 0.0, 0.0007723716186005536, 0.0, 0.0, 0.0, 0.0041476654734973195)", -0.0168342956289, 0.000283012105229, -0.176915393614, "(0.001, 0.0, 0.0, 0.0, 0.001, 0.0, 0.0, 0.0, 0.001)", 0.658746228652, 0.805596716648, 0.130959185731, "(0.001, 0.0, 0.0, 0.0, 0.001, 0.0, 0.0, 0.0, 0.001)"
1637149728977209724, 20436, 1636513562, 398156881, base_link, -0.00542853240244, 0.0110840693662, -0.00342125243149, -0.999917981373, "(0.0007731550343379225, 0.0, 0.0, 0.0, 0.0007723716186005536, 0.0, 0.0, 0.0, 0.0041476654734973195)", -0.0216827966141, 0.0121819811179, -0.270980268917, "(0.001, 0.0, 0.0, 0.0, 0.001, 0.0, 0.0, 0.0, 0.001)", 0.827867888866, 1.07246370305, -0.0845540130553, "(0.001, 0.0, 0.0, 0.0, 0.001, 0.0, 0.0, 0.0, 0.001)"
1637149728997370680, 20437, 1636513562, 418777942, base_link, -0.00528931218641, 0.0109383838649, -0.00112410416704, -0.999925552891, "(0.0007731550343379225, 0.0, 0.0, 0.0, 0.0007723716186005536, 0.0, 0.0, 0.0, 0.0041476654734973195)", -0.0139398662605, 0.00934951978085, -0.183768249827, "(0.001, 0.0, 0.0, 0.0, 0.001, 0.0, 0.0, 0.0, 0.001)", 0.671082675971, 0.82590895987, -0.158112758033, "(0.001, 0.0, 0.0, 0.0, 0.001, 0.0, 0.0, 0.0, 0.001)"
1637149729017979995, 20438, 1636513562, 439353942, base_link, -0.00521548623228, 0.0109278672774, 2.78272001041e-05, -0.999926687135, "(0.0007731550343379225, 0.0, 0.0, 0.0, 0.0007723716186005536, 0.0, 0.0, 0.0, 0.0041476654734973195)", -0.020659636511, 0.00692793141729, -0.274991183742, "(0.001, 0.0, 0.0, 0.0, 0.001, 0.0, 0.0, 0.0, 0.001)", 0.444603897508, 1.17869210475, 0.0544845805043, "(0.001, 0.0, 0.0, 0.0, 0.001, 0.0, 0.0, 0.0, 0.001)"
1637149729037591151, 20439, 1636513562, 458961963, base_link, 0.00517667738116, -0.0108700889841, -0.00117422118315, 0.999926829514, "(0.0007731550343379225, 0.0, 0.0, 0.0, 0.0007723716186005536, 0.0, 0.0, 0.0, 0.0041476654734973195)", -0.0107189881969, 0.00584665051153, -0.184181899723, "(0.001, 0.0, 0.0, 0.0, 0.001, 0.0, 0.0, 0.0, 0.001)", 0.842297659068, 0.702319422126, -0.297618792261, "(0.001, 0.0, 0.0, 0.0, 0.001, 0.0, 0.0, 0.0, 0.001)"
1637149729068718441, 20440, 1636513562, 480231046, base_link, 0.00514241133827, -0.0108264618578, -0.00236232411731, 0.999925378593, "(0.0007731550343379225, 0.0, 0.0, 0.0, 0.0007723716186005536, 0.0, 0.0, 0.0, 0.0041476654734973195)", -0.0124395955437, 0.0089555737351, -0.280700360119, "(0.001, 0.0, 0.0, 0.0, 0.001, 0.0, 0.0, 0.0, 0.001)", 0.725073785422, 1.62316919057, -0.16373598961, "(0.001, 0.0, 0.0, 0.0, 0.001, 0.0, 0.0, 0.0, 0.001)"
1637149729078057312, 20441, 1636513562, 499473094, base_link, 0.00510162807037, -0.0107470663372, -0.00353691372523, 0.999922979133, "(0.0007731550343379225, 0.0, 0.0, 0.0, 0.0007723716186005536, 0.0, 0.0, 0.0, 0.0041476654734973195)", -0.00802319666849, 0.010290706907, -0.187817856579, "(0.001, 0.0, 0.0, 0.0, 0.001, 0.0, 0.0, 0.0, 0.001)", 0.397873315059, 1.02079876453, -0.137634003188, "(0.001, 0.0, 0.0, 0.0, 0.001, 0.0, 0.0, 0.0, 0.001)"
1637149729096968015, 20442, 1636513562, 518389940, base_link, 0.00506507012578, -0.010690358913, -0.0047104398635, 0.999918933238, "(0.0007731550343379225, 0.0, 0.0, 0.0, 0.0007723716186005536, 0.0, 0.0, 0.0, 0.0041476654734973195)", -0.0130815560655, 0.0132986811447, -0.282299939942, "(0.001, 0.0, 0.0, 0.0, 0.001, 0.0, 0.0, 0.0, 0.001)", 0.704496557318, 1.71790006627, -0.498243847078, "(0.001, 0.0, 0.0, 0.0, 0.001, 0.0, 0.0, 0.0, 0.001)"
1637149729119694484, 20443, 1636513562, 541090011, base_link, 0.00503488007479, -0.0106546433654, -0.00589311453915, 0.999913196112, "(0.0007731550343379225, 0.0, 0.0, 0.0, 0.0007723716186005536, 0.0, 0.0, 0.0, 0.0041476654734973195)", -0.0068119205612, 0.00689645646249, -0.188310439266, "(0.001, 0.0, 0.0, 0.0, 0.001, 0.0, 0.0, 0.0, 0.001)", -0.113298143826, 1.03453415668, -0.108316436945, "(0.001, 0.0, 0.0, 0.0, 0.001, 0.0, 0.0, 0.0, 0.001)"
1637149729138278086, 20444, 1636513562, 559648990, base_link, 0.00503523349374, -0.0106171791481, -0.0070685070763, 0.999905974649, "(0.0007731550343379225, 0.0, 0.0, 0.0, 0.0007723716186005536, 0.0, 0.0, 0.0, 0.0041476654734973195)", -0.00698452813529, 0.00840778901624, -0.282609685419, "(0.001, 0.0, 0.0, 0.0, 0.001, 0.0, 0.0, 0.0, 0.001)", 0.289733781392, 1.60981953898, -0.408296304747, "(0.001, 0.0, 0.0, 0.0, 0.001, 0.0, 0.0, 0.0, 0.001)"
1637149729165447836, 20445, 1636513562, 578104972, base_link, 0.00503523349374, -0.0106171791481, -0.0070685070763, 0.999905974649, "(0.0007731550343379225, 0.0, 0.0, 0.0, 0.0007723716186005536, 0.0, 0.0, 0.0, 0.0041476654734973195)", -0.00633127848872, 0.00295644424181, -0.190325508662, "(0.001, 0.0, 0.0, 0.0, 0.001, 0.0, 0.0, 0.0, 0.001)", 0.156300683121, 1.28016884451, -0.193782002183, "(0.001, 0.0, 0.0, 0.0, 0.001, 0.0, 0.0, 0.0, 0.001)"
1637149729177336040, 20446, 1636513562, 598701000, base_link, 0.00497112084289, -0.0105744608381, -0.00944804191602, 0.999887095246, "(0.0007731550343379225, 0.0, 0.0, 0.0, 0.0007723716186005536, 0.0, 0.0, 0.0, 0.0041476654734973195)", -0.00871870505164, 0.00507187164519, -0.284141449402, "(0.001, 0.0, 0.0, 0.0, 0.001, 0.0, 0.0, 0.0, 0.001)", 0.0295626519273, 1.65915221955, -0.234090099256, "(0.001, 0.0, 0.0, 0.0, 0.001, 0.0, 0.0, 0.0, 0.001)"
1637149729198849449, 20447, 1636513562, 620218992, base_link, 0.00494899523523, -0.0105804429413, -0.0106491233722, 0.999875071119, "(0.0007731550343379225, 0.0, 0.0, 0.0, 0.0007723716186005536, 0.0, 0.0, 0.0, 0.0041476654734973195)", -0.00653454134523, -0.000976338883196, -0.191642278493, "(0.001, 0.0, 0.0, 0.0, 0.001, 0.0, 0.0, 0.0, 0.001)", -0.0337591407728, 1.41325835856, -0.284013129741, "(0.001, 0.0, 0.0, 0.0, 0.001, 0.0, 0.0, 0.0, 0.001)"
1637149729217047788, 20448, 1636513562, 638453006, base_link, 0.0048911570405, -0.0106527642067, -0.0118881843782, 0.999860623422, "(0.0007731550343379225, 0.0, 0.0, 0.0, 0.0007723716186005536, 0.0, 0.0, 0.0, 0.0041476654734973195)", -0.0131444037131, -0.0107648806648, -0.291987122816, "(0.001, 0.0, 0.0, 0.0, 0.001, 0.0, 0.0, 0.0, 0.001)", -0.573383032517, 1.81835723189, -0.14631107046, "(0.001, 0.0, 0.0, 0.0, 0.001, 0.0, 0.0, 0.0, 0.001)"
1637149729237601904, 20449, 1636513562, 658992052, base_link, 0.0048724509918, -0.0107195255774, -0.0131310486839, 0.999844451179, "(0.0007731550343379225, 0.0, 0.0, 0.0, 0.0007723716186005536, 0.0, 0.0, 0.0, 0.0041476654734973195)", -0.00634106038025, -0.0102403205867, -0.198055860662, "(0.001, 0.0, 0.0, 0.0, 0.001, 0.0, 0.0, 0.0, 0.001)", -0.118301009369, 1.06715745951, -0.211355930107, "(0.001, 0.0, 0.0, 0.0, 0.001, 0.0, 0.0, 0.0, 0.001)"
1637149729271010476, 20450, 1636513562, 679668903, base_link, 0.00482980987684, -0.0108351625971, -0.0144378501596, 0.999825395092, "(0.0007731550343379225, 0.0, 0.0, 0.0, 0.0007723716186005536, 0.0, 0.0, 0.0, 0.0041476654734973195)", -0.0120472800439, -0.0243341469607, -0.306146660041, "(0.001, 0.0, 0.0, 0.0, 0.001, 0.0, 0.0, 0.0, 0.001)", -0.406460876963, 1.74478125019, -0.063884641524, "(0.001, 0.0, 0.0, 0.0, 0.001, 0.0, 0.0, 0.0, 0.001)"
1637149729278383247, 20451, 1636513562, 699826002, base_link, 0.00477989345755, -0.0109806913846, -0.0157796677426, 0.999803770308, "(0.0007731550343379225, 0.0, 0.0, 0.0, 0.0007723716186005536, 0.0, 0.0, 0.0, 0.0041476654734973195)", -0.00873165990512, -0.0213099386053, -0.210642296571, "(0.001, 0.0, 0.0, 0.0, 0.001, 0.0, 0.0, 0.0, 0.001)", -0.474058653186, 1.05562975497, -0.0700023020203, "(0.001, 0.0, 0.0, 0.0, 0.001, 0.0, 0.0, 0.0, 0.001)"
1637149729297511060, 20452, 1636513562, 718880891, base_link, 0.00472002105441, -0.0111751690454, -0.017176116378, 0.999778884566, "(0.0007731550343379225, 0.0, 0.0, 0.0, 0.0007723716186005536, 0.0, 0.0, 0.0, 0.0041476654734973195)", -0.0156730907577, -0.0412701515844, -0.327275965108, "(0.001, 0.0, 0.0, 0.0, 0.001, 0.0, 0.0, 0.0, 0.001)", -0.359656535745, 1.69482806938, -0.0553138072616, "(0.001, 0.0, 0.0, 0.0, 0.001, 0.0, 0.0, 0.0, 0.001)"
1637149729318808971, 20453, 1636513562, 740166902, base_link, 0.0046289252904, -0.0113959484515, -0.0186154071774, 0.999751055026, "(0.0007731550343379225, 0.0, 0.0, 0.0, 0.0007723716186005536, 0.0, 0.0, 0.0, 0.0041476654734973195)", -0.0146856705425, -0.0342144598038, -0.226164375932, "(0.001, 0.0, 0.0, 0.0, 0.001, 0.0, 0.0, 0.0, 0.001)", -0.243772829981, 1.08826848401, 0.00917111780508, "(0.001, 0.0, 0.0, 0.0, 0.001, 0.0, 0.0, 0.0, 0.001)"
1637149729336882457, 20454, 1636513562, 758304119, base_link, 0.00455256167664, -0.0116500913825, -0.0201024962528, 0.999719680309, "(0.0007731550343379225, 0.0, 0.0, 0.0, 0.0007723716186005536, 0.0, 0.0, 0.0, 0.0041476654734973195)", -0.0213895017096, -0.0578937243476, -0.348816666423, "(0.001, 0.0, 0.0, 0.0, 0.001, 0.0, 0.0, 0.0, 0.001)", -0.0623580174652, 1.5138718913, 0.149163784097, "(0.001, 0.0, 0.0, 0.0, 0.001, 0.0, 0.0, 0.0, 0.001)"
1637149729370277229, 20455, 1636513562, 778845071, base_link, 0.00445979468613, -0.0119078439682, -0.0216433479194, 0.99968488984, "(0.0007731550343379225, 0.0, 0.0, 0.0, 0.0007723716186005536, 0.0, 0.0, 0.0, 0.0041476654734973195)", -0.0163679151446, -0.0423713678866, -0.242324936651, "(0.001, 0.0, 0.0, 0.0, 0.001, 0.0, 0.0, 0.0, 0.001)", 0.380943900057, 0.96832194373, -0.0722724780792, "(0.001, 0.0, 0.0, 0.0, 0.001, 0.0, 0.0, 0.0, 0.001)"
1637149729378416340, 20456, 1636513562, 799768924, base_link, 0.00439128914795, -0.0121311301798, -0.0232238275641, 0.999647040757, "(0.0007731550343379225, 0.0, 0.0, 0.0, 0.0007723716186005536, 0.0, 0.0, 0.0, 0.0041476654734973195)", -0.0218689311291, -0.0590465242373, -0.371930283025, "(0.001, 0.0, 0.0, 0.0, 0.001, 0.0, 0.0, 0.0, 0.001)", 0.812774410536, 0.75209951328, 0.106613958267, "(0.001, 0.0, 0.0, 0.0, 0.001, 0.0, 0.0, 0.0, 0.001)"
1637149729397310904, 20457, 1636513562, 818757057, base_link, 0.00432237149105, -0.0122920843197, -0.0247970866093, 0.999607586137, "(0.0007731550343379225, 0.0, 0.0, 0.0, 0.0007723716186005536, 0.0, 0.0, 0.0, 0.0041476654734973195)", -0.0134798810435, -0.0316729615976, -0.251474603435, "(0.001, 0.0, 0.0, 0.0, 0.001, 0.0, 0.0, 0.0, 0.001)", 1.32033318597, 0.457041123674, -0.0456689393683, "(0.001, 0.0, 0.0, 0.0, 0.001, 0.0, 0.0, 0.0, 0.001)"
1637149729417402654, 20458, 1636513562, 838723897, base_link, 0.00424757824093, -0.0124368772855, -0.0264322893503, 0.999564213166, "(0.0007731550343379225, 0.0, 0.0, 0.0, 0.0007723716186005536, 0.0, 0.0, 0.0, 0.0041476654734973195)", -0.0209650830111, -0.0413257784571, -0.384825417721, "(0.001, 0.0, 0.0, 0.0, 0.001, 0.0, 0.0, 0.0, 0.001)", 1.00278418913, 1.07857231827, 0.137735162266, "(0.001, 0.0, 0.0, 0.0, 0.001, 0.0, 0.0, 0.0, 0.001)"
1637149729438799532, 20459, 1636513562, 860235929, base_link, 0.00418453941391, -0.0125502063141, -0.0280716848915, 0.999518365243, "(0.0007731550343379225, 0.0, 0.0, 0.0, 0.0007723716186005536, 0.0, 0.0, 0.0, 0.0041476654734973195)", -0.0135660396164, -0.0216851080143, -0.260660099213, "(0.001, 0.0, 0.0, 0.0, 0.001, 0.0, 0.0, 0.0, 0.001)", 0.809868486933, 0.611106591049, 0.198803988474, "(0.001, 0.0, 0.0, 0.0, 0.001, 0.0, 0.0, 0.0, 0.001)"
1637149729465745612, 20460, 1636513562, 878068923, base_link, 0.00418453941391, -0.0125502063141, -0.0280716848915, 0.999518365243, "(0.0007731550343379225, 0.0, 0.0, 0.0, 0.0007723716186005536, 0.0, 0.0, 0.0, 0.0041476654734973195)", -0.0213072591814, -0.0270735357126, -0.404118588769, "(0.001, 0.0, 0.0, 0.0, 0.001, 0.0, 0.0, 0.0, 0.001)", 1.51933167706, 0.524656135684, 0.0596114790796, "(0.001, 0.0, 0.0, 0.0, 0.001, 0.0, 0.0, 0.0, 0.001)"
1637149729479801263, 20461, 1636513562, 899019956, base_link, 0.00409339458666, -0.0126705987287, -0.031549528137, 0.999413491665, "(0.0007731550343379225, 0.0, 0.0, 0.0, 0.0007723716186005536, 0.0, 0.0, 0.0, 0.0041476654734973195)", -0.00893213764086, -0.0104015082052, -0.27645698956, "(0.001, 0.0, 0.0, 0.0, 0.001, 0.0, 0.0, 0.0, 0.001)", 0.779730678291, 0.472363930811, 0.190246759763, "(0.001, 0.0, 0.0, 0.0, 0.001, 0.0, 0.0, 0.0, 0.001)"
1637149729498415363, 20462, 1636513562, 919709920, base_link, 0.00405458764154, -0.0126968818853, -0.0333589764202, 0.999354555802, "(0.0007731550343379225, 0.0, 0.0, 0.0, 0.0007723716186005536, 0.0, 0.0, 0.0, 0.0041476654734973195)", -0.0136769741254, -0.0109246125151, -0.426881965556, "(0.001, 0.0, 0.0, 0.0, 0.001, 0.0, 0.0, 0.0, 0.001)", 1.01433381793, 1.09033829351, 0.222703332673, "(0.001, 0.0, 0.0, 0.0, 0.001, 0.0, 0.0, 0.0, 0.001)"
1637149729517246854, 20463, 1636513562, 938462972, base_link, 0.00397189786226, -0.0127711761133, -0.0352126082883, 0.999290344848, "(0.0007731550343379225, 0.0, 0.0, 0.0, 0.0007723716186005536, 0.0, 0.0, 0.0, 0.0041476654734973195)", -0.0139366756544, -0.0118600141919, -0.292135390955, "(0.001, 0.0, 0.0, 0.0, 0.001, 0.0, 0.0, 0.0, 0.001)", 0.298121754125, 0.759300579457, 0.164486298879, "(0.001, 0.0, 0.0, 0.0, 0.001, 0.0, 0.0, 0.0, 0.001)"
1637149729538689866, 20464, 1636513562, 959923028, base_link, 0.00397189786226, -0.0127711761133, -0.0352126082883, 0.999290344848, "(0.0007731550343379225, 0.0, 0.0, 0.0, 0.0007723716186005536, 0.0, 0.0, 0.0, 0.0041476654734973195)", -0.0181637340104, -0.0126402057512, -0.449185915095, "(0.001, 0.0, 0.0, 0.0, 0.001, 0.0, 0.0, 0.0, 0.001)", 1.09600533849, 0.813570868585, -0.0089557195337, "(0.001, 0.0, 0.0, 0.0, 0.001, 0.0, 0.0, 0.0, 0.001)"
1637149729571181945, 20465, 1636513562, 980391979, base_link, 0.00388772173778, -0.0128180073599, -0.0390591677123, 0.999147119159, "(0.0007731550343379225, 0.0, 0.0, 0.0, 0.0007723716186005536, 0.0, 0.0, 0.0, 0.0041476654734973195)", -0.0111874511206, -0.00598763174197, -0.307711642171, "(0.001, 0.0, 0.0, 0.0, 0.001, 0.0, 0.0, 0.0, 0.001)", 0.758365214084, 0.662788985672, -0.0827363533434, "(0.001, 0.0, 0.0, 0.0, 0.001, 0.0, 0.0, 0.0, 0.001)"
1637149729577188227, 20466, 1636513562, 998018026, base_link, 0.00388772173778, -0.0128180073599, -0.0390591677123, 0.999147119159, "(0.0007731550343379225, 0.0, 0.0, 0.0, 0.0007723716186005536, 0.0, 0.0, 0.0, 0.0041476654734973195)", -0.0177694641057, -0.00746806303771, -0.471321289603, "(0.001, 0.0, 0.0, 0.0, 0.001, 0.0, 0.0, 0.0, 0.001)", 0.591887102675, 0.950391779856, -0.0647264559235, "(0.001, 0.0, 0.0, 0.0, 0.001, 0.0, 0.0, 0.0, 0.001)"
1637149729598810284, 20467, 1636513563, 19311904, base_link, 0.00383535776619, -0.0128331390253, -0.0410559708381, 0.999067068736, "(0.0007731550343379225, 0.0, 0.0, 0.0, 0.0007723716186005536, 0.0, 0.0, 0.0, 0.0041476654734973195)", -0.0104922559775, -0.0027442267961, -0.319813249561, "(0.001, 0.0, 0.0, 0.0, 0.001, 0.0, 0.0, 0.0, 0.001)", 0.836866930119, 0.755653336101, -0.236526643556, "(0.001, 0.0, 0.0, 0.0, 0.001, 0.0, 0.0, 0.0, 0.001)"
1637149729617905887, 20468, 1636513563, 39329051, base_link, 0.00377069786629, -0.0127988886766, -0.0451315850792, 0.99889194126, "(0.0007731550343379225, 0.0, 0.0, 0.0, 0.0007723716186005536, 0.0, 0.0, 0.0, 0.0041476654734973195)", -0.0148392430853, 0.000559865289938, -0.489109295991, "(0.001, 0.0, 0.0, 0.0, 0.001, 0.0, 0.0, 0.0, 0.001)", 1.06984498622, 0.890100038922, -0.297696206477, "(0.001, 0.0, 0.0, 0.0, 0.001, 0.0, 0.0, 0.0, 0.001)"
1637149729637351141, 20469, 1636513563, 58765888, base_link, 0.00376945963715, -0.0127051079735, -0.0472134453021, 0.998796907278, "(0.0007731550343379225, 0.0, 0.0, 0.0, 0.0007723716186005536, 0.0, 0.0, 0.0, 0.0041476654734973195)", -0.00657156044907, 0.00943838744809, -0.331189904736, "(0.001, 0.0, 0.0, 0.0, 0.001, 0.0, 0.0, 0.0, 0.001)", 1.02156533071, 0.737385185537, -0.216260283098, "(0.001, 0.0, 0.0, 0.0, 0.001, 0.0, 0.0, 0.0, 0.001)"
1637149729669141386, 20470, 1636513563, 79417943, base_link, 0.00372857513903, -0.012524030947, -0.0493269021763, 0.998697202909, "(0.0007731550343379225, 0.0, 0.0, 0.0, 0.0007723716186005536, 0.0, 0.0, 0.0, 0.0041476654734973195)", -0.0142572052452, 0.0292139156745, -0.50415023686, "(0.001, 0.0, 0.0, 0.0, 0.001, 0.0, 0.0, 0.0, 0.001)", 2.18143492379, 1.56350322148, -0.388490215473, "(0.001, 0.0, 0.0, 0.0, 0.001, 0.0, 0.0, 0.0, 0.001)"
1637149729677386840, 20471, 1636513563, 98797082, base_link, 0.00367915789927, -0.0123688747603, -0.0514457760321, 0.99859241278, "(0.0007731550343379225, 0.0, 0.0, 0.0, 0.0007723716186005536, 0.0, 0.0, 0.0, 0.0041476654734973195)", -0.0114925115443, 0.0235276528082, -0.337707551057, "(0.001, 0.0, 0.0, 0.0, 0.001, 0.0, 0.0, 0.0, 0.001)", 0.320393655486, 1.07086649815, 0.0634063019146, "(0.001, 0.0, 0.0, 0.0, 0.001, 0.0, 0.0, 0.0, 0.001)"
1637149729697281781, 20472, 1636513563, 118644952, base_link, 0.00361600749123, -0.0122329928164, -0.0535784714129, 0.998482160971, "(0.0007731550343379225, 0.0, 0.0, 0.0, 0.0007723716186005536, 0.0, 0.0, 0.0, 0.0041476654734973195)", -0.0209410904553, 0.0316567581601, -0.511082514015, "(0.001, 0.0, 0.0, 0.0, 0.001, 0.0, 0.0, 0.0, 0.001)", 1.20968526879, 1.32901471372, -0.308464784529, "(0.001, 0.0, 0.0, 0.0, 0.001, 0.0, 0.0, 0.0, 0.001)"
1637149729719019996, 20473, 1636513563, 140397071, base_link, 0.0035413075994, -0.0121101459465, -0.0557299440197, 0.998366153696, "(0.0007731550343379225, 0.0, 0.0, 0.0, 0.0007723716186005536, 0.0, 0.0, 0.0, 0.0041476654734973195)", -0.0166572535198, 0.0184250348714, -0.342669811963, "(0.001, 0.0, 0.0, 0.0, 0.001, 0.0, 0.0, 0.0, 0.001)", 0.554783921466, 1.39242476374, 0.0218260768203, "(0.001, 0.0, 0.0, 0.0, 0.001, 0.0, 0.0, 0.0, 0.001)"
1637149729738254502, 20474, 1636513563, 159651994, base_link, 0.00337877551529, -0.0119129607326, -0.0578815832093, 0.998246656677, "(0.0007731550343379225, 0.0, 0.0, 0.0, 0.0007723716186005536, 0.0, 0.0, 0.0, 0.0041476654734973195)", -0.0372504395209, 0.0365259186769, -0.516150260934, "(0.001, 0.0, 0.0, 0.0, 0.001, 0.0, 0.0, 0.0, 0.001)", 1.38971440755, 1.34581995712, 0.436826574356, "(0.001, 0.0, 0.0, 0.0, 0.001, 0.0, 0.0, 0.0, 0.001)"
1637149729766647313, 20475, 1636513563, 178961038, base_link, 0.00327306000593, -0.0117355833142, -0.0600297850323, 0.998122231028, "(0.0007731550343379225, 0.0, 0.0, 0.0, 0.0007723716186005536, 0.0, 0.0, 0.0, 0.0041476654734973195)", -0.0247975848604, 0.0254586226586, -0.344507351581, "(0.001, 0.0, 0.0, 0.0, 0.001, 0.0, 0.0, 0.0, 0.001)", 0.284941239556, 0.620281824832, -0.104336055314, "(0.001, 0.0, 0.0, 0.0, 0.001, 0.0, 0.0, 0.0, 0.001)"
1637149729777345633, 20476, 1636513563, 198782920, base_link, 0.00311516382537, -0.0116721464923, -0.0621715364636, 0.997992363099, "(0.0007731550343379225, 0.0, 0.0, 0.0, 0.0007723716186005536, 0.0, 0.0, 0.0, 0.0041476654734973195)", -0.0393218345127, 0.0229565067652, -0.515287363203, "(0.001, 0.0, 0.0, 0.0, 0.001, 0.0, 0.0, 0.0, 0.001)", 0.513943035271, 1.39535299168, 0.389447292387, "(0.001, 0.0, 0.0, 0.0, 0.001, 0.0, 0.0, 0.0, 0.001)"
1637149729798647850, 20477, 1636513563, 219968080, base_link, 0.00297844260526, -0.0116042627683, -0.0643180665283, 0.997857533059, "(0.0007731550343379225, 0.0, 0.0, 0.0, 0.0007723716186005536, 0.0, 0.0, 0.0, 0.0041476654734973195)", -0.02798789466, 0.010828032065, -0.343376002965, "(0.001, 0.0, 0.0, 0.0, 0.001, 0.0, 0.0, 0.0, 0.001)", 0.139170572725, 0.316558356937, 0.00828156377558, "(0.001, 0.0, 0.0, 0.0, 0.001, 0.0, 0.0, 0.0, 0.001)"
1637149729816934158, 20478, 1636513563, 238339900, base_link, 0.00286143599527, -0.0115693803686, -0.066506331324, 0.997714823743, "(0.0007731550343379225, 0.0, 0.0, 0.0, 0.0007723716186005536, 0.0, 0.0, 0.0, 0.0041476654734973195)", -0.0364343433821, 0.00895156160122, -0.52130908002, "(0.001, 0.0, 0.0, 0.0, 0.001, 0.0, 0.0, 0.0, 0.001)", 0.278265154068, 1.41249523498, 0.183132458015, "(0.001, 0.0, 0.0, 0.0, 0.001, 0.0, 0.0, 0.0, 0.001)"
1637149729838468023, 20479, 1636513563, 259476900, base_link, 0.00286143599527, -0.0115693803686, -0.066506331324, 0.997714823743, "(0.0007731550343379225, 0.0, 0.0, 0.0, 0.0007723716186005536, 0.0, 0.0, 0.0, 0.0041476654734973195)", -0.0251396721577, 0.000869839759111, -0.350742286881, "(0.001, 0.0, 0.0, 0.0, 0.001, 0.0, 0.0, 0.0, 0.001)", -0.357508369863, 0.582714243648, 0.0942135962442, "(0.001, 0.0, 0.0, 0.0, 0.001, 0.0, 0.0, 0.0, 0.001)"
1637149729866189505, 20480, 1636513563, 279453992, base_link, 0.00264772888925, -0.0115719592603, -0.0709260255889, 0.99741093747, "(0.0007731550343379225, 0.0, 0.0, 0.0, 0.0007723716186005536, 0.0, 0.0, 0.0, 0.0041476654734973195)", -0.0316690477457, -0.00376595537004, -0.531203094809, "(0.001, 0.0, 0.0, 0.0, 0.001, 0.0, 0.0, 0.0, 0.001)", 0.420523719888, 0.776477705601, -0.139555507991, "(0.001, 0.0, 0.0, 0.0, 0.001, 0.0, 0.0, 0.0, 0.001)"
1637149729881173880, 20481, 1636513563, 302598953, base_link, 0.0025550599169, -0.011616711621, -0.0731862325088, 0.997247361015, "(0.0007731550343379225, 0.0, 0.0, 0.0, 0.0007723716186005536, 0.0, 0.0, 0.0, 0.0041476654734973195)", -0.0187264218639, -0.00646570090714, -0.358780908202, "(0.001, 0.0, 0.0, 0.0, 0.001, 0.0, 0.0, 0.0, 0.001)", -0.330609145535, 0.604565678373, -0.0813125076037, "(0.001, 0.0, 0.0, 0.0, 0.001, 0.0, 0.0, 0.0, 0.001)"
1637149729900072444, 20482, 1636513563, 321463108, base_link, 0.00251980700998, -0.0116662050748, -0.0754508126995, 0.997078093779, "(0.0012926554568082477, 0.0, 0.0, 0.0, 0.0012917737640762011, 0.0, 0.0, 0.0, 0.004694307640656925)", -0.0203784892702, -0.0117751557819, -0.543102981135, "(0.001, 0.0, 0.0, 0.0, 0.001, 0.0, 0.0, 0.0, 0.001)", 0.250258049059, 0.54985275567, -0.206696849461, "(0.001, 0.0, 0.0, 0.0, 0.001, 0.0, 0.0, 0.0, 0.001)"
1637149729919469114, 20483, 1636513563, 340291976, base_link, 0.00251980700998, -0.0116662050748, -0.0754508126995, 0.997078093779, "(0.0012926554568082477, 0.0, 0.0, 0.0, 0.0012917737640762011, 0.0, 0.0, 0.0, 0.004694307640656925)", -0.00998490047927, -0.0120615610302, -0.366969508307, "(0.001, 0.0, 0.0, 0.0, 0.001, 0.0, 0.0, 0.0, 0.001)", 0.0531605050362, 0.699099309197, -0.10145853851, "(0.001, 0.0, 0.0, 0.0, 0.001, 0.0, 0.0, 0.0, 0.001)"
1637149729937240575, 20484, 1636513563, 358526945, base_link, 0.00247057223537, -0.0118475151055, -0.0800977473809, 0.996713541356, "(0.0012857495227871496, 0.0, 0.0, 0.0, 0.0012851239146983162, 0.0, 0.0, 0.0, 0.004690447189198643)", -0.0102118470961, -0.0234581805662, -0.557460320877, "(0.001, 0.0, 0.0, 0.0, 0.001, 0.0, 0.0, 0.0, 0.001)", -0.0602196978593, 0.57032676638, -0.138671299067, "(0.001, 0.0, 0.0, 0.0, 0.001, 0.0, 0.0, 0.0, 0.001)"
1637149729973361688, 20485, 1636513563, 380670070, base_link, 0.00251443130803, -0.0119873441176, -0.0824460127756, 0.996520263815, "(0.0012857495227871496, 0.0, 0.0, 0.0, 0.0012851239146983162, 0.0, 0.0, 0.0, 0.004690447189198643)", -0.000772379621382, -0.0210792869533, -0.376294418544, "(0.001, 0.0, 0.0, 0.0, 0.001, 0.0, 0.0, 0.0, 0.001)", 0.525649238466, 0.498393541365, -0.303297529679, "(0.001, 0.0, 0.0, 0.0, 0.001, 0.0, 0.0, 0.0, 0.001)"
1637149729977739567, 20486, 1636513563, 398684024, base_link, 0.00251443130803, -0.0119873441176, -0.0824460127756, 0.996520263815, "(0.0012857495227871496, 0.0, 0.0, 0.0, 0.0012851239146983162, 0.0, 0.0, 0.0, 0.004690447189198643)", -0.00142272124367, -0.0390422287878, -0.56940338995, "(0.001, 0.0, 0.0, 0.0, 0.001, 0.0, 0.0, 0.0, 0.001)", 0.241764002568, 0.771618723486, 0.00279952246513, "(0.001, 0.0, 0.0, 0.0, 0.001, 0.0, 0.0, 0.0, 0.001)"
1637149729997712421, 20487, 1636513563, 419142961, base_link, 0.00255038740925, -0.0123724491031, -0.0872065035203, 0.996110156444, "(0.0012857495227871496, 0.0, 0.0, 0.0, 0.0012851239146983162, 0.0, 0.0, 0.0, 0.004690447189198643)", 0.0028802714459, -0.0311974645384, -0.381284514295, "(0.001, 0.0, 0.0, 0.0, 0.001, 0.0, 0.0, 0.0, 0.001)", 0.640003036979, 0.347554789585, -0.201628153172, "(0.001, 0.0, 0.0, 0.0, 0.001, 0.0, 0.0, 0.0, 0.001)"
1637149730018940136, 20488, 1636513563, 440301895, base_link, 0.00259313086413, -0.0125826407244, -0.0896090253444, 0.995894158735, "(0.0012857495227871496, 0.0, 0.0, 0.0, 0.0012851239146983162, 0.0, 0.0, 0.0, 0.004690447189198643)", 0.0064288239242, -0.0504988486607, -0.575920595769, "(0.001, 0.0, 0.0, 0.0, 0.001, 0.0, 0.0, 0.0, 0.001)", 1.18595688573, 1.03267389643, -0.0687161109964, "(0.001, 0.0, 0.0, 0.0, 0.001, 0.0, 0.0, 0.0, 0.001)"
1637149730037436396, 20489, 1636513563, 458832025, base_link, 0.00261929881322, -0.0127712956214, -0.092021090552, 0.995671709036, "(0.0012857495227871496, 0.0, 0.0, 0.0, 0.0012851239146983162, 0.0, 0.0, 0.0, 0.004690447189198643)", 0.00292789118771, -0.0323970028299, -0.385988832268, "(0.001, 0.0, 0.0, 0.0, 0.001, 0.0, 0.0, 0.0, 0.001)", 0.758982386623, 0.44092321954, -0.0335748548731, "(0.001, 0.0, 0.0, 0.0, 0.001, 0.0, 0.0, 0.0, 0.001)"
1637149730073507730, 20490, 1636513563, 478720903, base_link, 0.00267370391244, -0.0129032131986, -0.0944497148134, 0.995442419112, "(0.0012857495227871496, 0.0, 0.0, 0.0, 0.0012851239146983162, 0.0, 0.0, 0.0, 0.004690447189198643)", 0.00661810478967, -0.0395379681835, -0.583211375244, "(0.001, 0.0, 0.0, 0.0, 0.001, 0.0, 0.0, 0.0, 0.001)", 1.73295067733, 0.914380867847, -0.179635130183, "(0.001, 0.0, 0.0, 0.0, 0.001, 0.0, 0.0, 0.0, 0.001)"
1637149730077842981, 20491, 1636513563, 499288082, base_link, 0.00268905668536, -0.0130585910268, -0.0969127819721, 0.995203574584, "(0.0012857495227871496, 0.0, 0.0, 0.0, 0.0012851239146983162, 0.0, 0.0, 0.0, 0.004690447189198643)", 0.0013525867986, -0.0258354068452, -0.393038728416, "(0.001, 0.0, 0.0, 0.0, 0.001, 0.0, 0.0, 0.0, 0.001)", 0.648922099621, 0.79016897719, -0.182577117649, "(0.001, 0.0, 0.0, 0.0, 0.001, 0.0, 0.0, 0.0, 0.001)"
1637149730097925234, 20492, 1636513563, 519362926, base_link, 0.00271796862546, -0.0131588037612, -0.0993930518071, 0.994957526622, "(0.0012857495227871496, 0.0, 0.0, 0.0, 0.0012851239146983162, 0.0, 0.0, 0.0, 0.004690447189198643)", 0.00188389742668, -0.0312572242187, -0.594544101422, "(0.001, 0.0, 0.0, 0.0, 0.001, 0.0, 0.0, 0.0, 0.001)", 1.5760305108, 0.635486338152, -0.0900483144291, "(0.001, 0.0, 0.0, 0.0, 0.001, 0.0, 0.0, 0.0, 0.001)"
1637149730117359993, 20493, 1636513563, 538712978, base_link, 0.00277007934498, -0.0132464408392, -0.101893849482, 0.994703223028, "(0.0012857495227871496, 0.0, 0.0, 0.0, 0.0012851239146983162, 0.0, 0.0, 0.0, 0.004690447189198643)", 0.00394954743305, -0.0167811056304, -0.400703539701, "(0.001, 0.0, 0.0, 0.0, 0.001, 0.0, 0.0, 0.0, 0.001)", 1.10845208197, 0.539609708328, -0.16065875115, "(0.001, 0.0, 0.0, 0.0, 0.001, 0.0, 0.0, 0.0, 0.001)"
1637149730138482108, 20494, 1636513563, 559933900, base_link, 0.0028031587424, -0.0133216966766, -0.104437741491, 0.994438249893, "(0.0012857495227871496, 0.0, 0.0, 0.0, 0.0012851239146983162, 0.0, 0.0, 0.0, 0.004690447189198643)", 0.00280468627613, -0.0220276149099, -0.607730576749, "(0.001, 0.0, 0.0, 0.0, 0.001, 0.0, 0.0, 0.0, 0.001)", 1.32290350382, 0.86383528434, -0.0894324410461, "(0.001, 0.0, 0.0, 0.0, 0.001, 0.0, 0.0, 0.0, 0.001)"
1637149730164420078, 20495, 1636513563, 578902006, base_link, 0.00284120581149, -0.013388978092, -0.106982539359, 0.994166685766, "(0.0012857495227871496, 0.0, 0.0, 0.0, 0.0012851239146983162, 0.0, 0.0, 0.0, 0.004690447189198643)", 0.00245642916406, -0.012380388911, -0.408631900639, "(0.001, 0.0, 0.0, 0.0, 0.001, 0.0, 0.0, 0.0, 0.001)", 1.0536536949, 0.396466016742, -0.0923773415007, "(0.001, 0.0, 0.0, 0.0, 0.001, 0.0, 0.0, 0.0, 0.001)"
1637149730178361652, 20496, 1636513563, 599756956, base_link, 0.00288193006817, -0.0134341423941, -0.109579240866, 0.993883095876, "(0.0012857495227871496, 0.0, 0.0, 0.0, 0.0012851239146983162, 0.0, 0.0, 0.0, 0.004690447189198643)", 0.00220818077899, -0.016190690238, -0.620930628985, "(0.001, 0.0, 0.0, 0.0, 0.001, 0.0, 0.0, 0.0, 0.001)", 1.90312303402, 0.601438737212, -0.181582231012, "(0.001, 0.0, 0.0, 0.0, 0.001, 0.0, 0.0, 0.0, 0.001)"
1637149730199124233, 20497, 1636513563, 620594024, base_link, 0.00291716026948, -0.0134224698138, -0.11218771093, 0.993592091855, "(0.0012857495227871496, 0.0, 0.0, 0.0, 0.0012851239146983162, 0.0, 0.0, 0.0, 0.004690447189198643)", 0.000754499061677, -0.00271935295119, -0.417745092319, "(0.001, 0.0, 0.0, 0.0, 0.001, 0.0, 0.0, 0.0, 0.001)", 1.12387608213, 0.406290541253, 0.0226576119344, "(0.001, 0.0, 0.0, 0.0, 0.001, 0.0, 0.0, 0.0, 0.001)"
1637149730217081996, 20498, 1636513563, 638420104, base_link, 0.0029740721588, -0.0133373820759, -0.114833988297, 0.993290704812, "(0.0012857495227871496, 0.0, 0.0, 0.0, 0.0012851239146983162, 0.0, 0.0, 0.0, 0.004690447189198643)", 0.00221050181681, 0.00781903872541, -0.634584769904, "(0.001, 0.0, 0.0, 0.0, 0.001, 0.0, 0.0, 0.0, 0.001)", 2.03702885112, 0.528441562153, -0.0251635336358, "(0.001, 0.0, 0.0, 0.0, 0.001, 0.0, 0.0, 0.0, 0.001)"
1637149730237743622, 20499, 1636513563, 659133911, base_link, 0.00302581556912, -0.0133157472082, -0.117513700226, 0.992977374151, "(0.0012857495227871496, 0.0, 0.0, 0.0, 0.0012851239146983162, 0.0, 0.0, 0.0, 0.004690447189198643)", 0.00178277281923, 0.00565630437535, -0.4285140099, "(0.001, 0.0, 0.0, 0.0, 0.001, 0.0, 0.0, 0.0, 0.001)", 0.560397785562, 0.276470913069, -0.0799767433417, "(0.001, 0.0, 0.0, 0.0, 0.001, 0.0, 0.0, 0.0, 0.001)"
1637149730267766880, 20500, 1636513563, 679647922, base_link, 0.00308207832715, -0.0132844688441, -0.120244019224, 0.992650693609, "(0.0012857495227871496, 0.0, 0.0, 0.0, 0.0012851239146983162, 0.0, 0.0, 0.0, 0.004690447189198643)", 0.00397635760399, 0.00720329272137, -0.652311079906, "(0.001, 0.0, 0.0, 0.0, 0.001, 0.0, 0.0, 0.0, 0.001)", 0.916481471493, 0.423436846494, 0.100049774844, "(0.001, 0.0, 0.0, 0.0, 0.001, 0.0, 0.0, 0.0, 0.001)"
1637149730277334777, 20501, 1636513563, 698734045, base_link, 0.00313520366372, -0.0132840878664, -0.122992044017, 0.992313791407, "(0.0012857495227871496, 0.0, 0.0, 0.0, 0.0012851239146983162, 0.0, 0.0, 0.0, 0.004690447189198643)", 0.00207808038211, 0.000184614238699, -0.441134899201, "(0.001, 0.0, 0.0, 0.0, 0.001, 0.0, 0.0, 0.0, 0.001)", 0.644454048106, 0.162259021245, 0.0226342291151, "(0.001, 0.0, 0.0, 0.0, 0.001, 0.0, 0.0, 0.0, 0.001)"
1637149730298719346, 20502, 1636513563, 720005989, base_link, 0.00318597994132, -0.0133601730261, -0.125770462999, 0.991964286628, "(0.0012857495227871496, 0.0, 0.0, 0.0, 0.0012851239146983162, 0.0, 0.0, 0.0, 0.004690447189198643)", 0.00573657344689, -0.0099613117897, -0.666642477526, "(0.001, 0.0, 0.0, 0.0, 0.001, 0.0, 0.0, 0.0, 0.001)", 0.544060310029, 0.646366628554, 0.300860210304, "(0.001, 0.0, 0.0, 0.0, 0.001, 0.0, 0.0, 0.0, 0.001)"
1637149730318810672, 20503, 1636513563, 740268945, base_link, 0.00322623753301, -0.0133839101524, -0.128604408552, 0.991600407645, "(0.0012857495227871496, 0.0, 0.0, 0.0, 0.0012851239146983162, 0.0, 0.0, 0.0, 0.004690447189198643)", 0.00139709071298, -0.00754053294969, -0.453400883046, "(0.001, 0.0, 0.0, 0.0, 0.001, 0.0, 0.0, 0.0, 0.001)", 0.521472254137, 0.257973256626, 0.14040916933, "(0.001, 0.0, 0.0, 0.0, 0.001, 0.0, 0.0, 0.0, 0.001)"
1637149730337057370, 20504, 1636513563, 758466958, base_link, 0.00328024283814, -0.0134395456345, -0.131509723794, 0.991218346868, "(0.0012857495227871496, 0.0, 0.0, 0.0, 0.0012851239146983162, 0.0, 0.0, 0.0, 0.004690447189198643)", 0.00375269500024, -0.0140860008483, -0.693044973391, "(0.001, 0.0, 0.0, 0.0, 0.001, 0.0, 0.0, 0.0, 0.001)", 1.02035537219, 0.504395290377, 0.366862050143, "(0.001, 0.0, 0.0, 0.0, 0.001, 0.0, 0.0, 0.0, 0.001)"
1637149730367139598, 20505, 1636513563, 779103040, base_link, 0.0033289680101, -0.0134387770779, -0.134431369509, 0.990826182604, "(0.0012857495227871496, 0.0, 0.0, 0.0, 0.0012851239146983162, 0.0, 0.0, 0.0, 0.004690447189198643)", 0.00239342042755, -0.00311131959544, -0.469091005678, "(0.001, 0.0, 0.0, 0.0, 0.001, 0.0, 0.0, 0.0, 0.001)", 1.07357926063, 0.221542224492, 0.227489031655, "(0.001, 0.0, 0.0, 0.0, 0.001, 0.0, 0.0, 0.0, 0.001)"
1637149730378666159, 20506, 1636513563, 799880981, base_link, 0.00340359880908, -0.0133325727543, -0.137384171902, 0.990422257085, "(0.0012857495227871496, 0.0, 0.0, 0.0, 0.0012851239146983162, 0.0, 0.0, 0.0, 0.004690447189198643)", 0.0036571233765, 0.010741826356, -0.711032126362, "(0.001, 0.0, 0.0, 0.0, 0.001, 0.0, 0.0, 0.0, 0.001)", 1.57680600272, -0.11940127278, 0.0841063066816, "(0.001, 0.0, 0.0, 0.0, 0.001, 0.0, 0.0, 0.0, 0.001)"
1637149730397045599, 20507, 1636513563, 818466901, base_link, 0.00347671321884, -0.0132683760621, -0.140370216147, 0.990004073265, "(0.0012857495227871496, 0.0, 0.0, 0.0, 0.0012851239146983162, 0.0, 0.0, 0.0, 0.004690447189198643)", 0.00433569259915, 0.00931312267293, -0.479275584143, "(0.001, 0.0, 0.0, 0.0, 0.001, 0.0, 0.0, 0.0, 0.001)", 0.668278530335, 0.346959587428, 0.136225246484, "(0.001, 0.0, 0.0, 0.0, 0.001, 0.0, 0.0, 0.0, 0.001)"
1637149730417435701, 20508, 1636513563, 838769912, base_link, 0.00355840310732, -0.0131791228643, -0.143372286991, 0.989574674196, "(0.0012857495227871496, 0.0, 0.0, 0.0, 0.0012851239146983162, 0.0, 0.0, 0.0, 0.004690447189198643)", 0.0063223336736, 0.019008775951, -0.724092939072, "(0.001, 0.0, 0.0, 0.0, 0.001, 0.0, 0.0, 0.0, 0.001)", 1.14219054173, -0.294564062725, 0.105167575302, "(0.001, 0.0, 0.0, 0.0, 0.001, 0.0, 0.0, 0.0, 0.001)"
1637149730438882629, 20509, 1636513563, 860181093, base_link, 0.00369463649036, -0.0131366205715, -0.146411038404, 0.989129711764, "(0.0012857495227871496, 0.0, 0.0, 0.0, 0.0012851239146983162, 0.0, 0.0, 0.0, 0.004690447189198643)", 0.0102493775368, 0.00818133581476, -0.489235940804, "(0.001, 0.0, 0.0, 0.0, 0.001, 0.0, 0.0, 0.0, 0.001)", 0.558333489031, 0.203205542288, -0.159464603424, "(0.001, 0.0, 0.0, 0.0, 0.001, 0.0, 0.0, 0.0, 0.001)"
1637149730457400425, 20510, 1636513563, 878840923, base_link, 0.00377679814346, -0.0131822895019, -0.149485119566, 0.988668883938, "(0.0012857495227871496, 0.0, 0.0, 0.0, 0.0012851239146983162, 0.0, 0.0, 0.0, 0.004690447189198643)", 0.0159513135047, -0.000772099621156, -0.740624442979, "(0.001, 0.0, 0.0, 0.0, 0.001, 0.0, 0.0, 0.0, 0.001)", 0.301733929689, 0.478388381577, 0.100932543151, "(0.001, 0.0, 0.0, 0.0, 0.001, 0.0, 0.0, 0.0, 0.001)"
1637149730489259103, 20511, 1636513563, 898981094, base_link, 0.00386345720655, -0.0133160215259, -0.152543719678, 0.988199459045, "(0.0012857495227871496, 0.0, 0.0, 0.0, 0.0012851239146983162, 0.0, 0.0, 0.0, 0.004690447189198643)", 0.00954737889217, -0.0138975571782, -0.495396536333, "(0.001, 0.0, 0.0, 0.0, 0.001, 0.0, 0.0, 0.0, 0.001)", 0.359909763536, 0.0860892580533, -0.118024798016, "(0.001, 0.0, 0.0, 0.0, 0.001, 0.0, 0.0, 0.0, 0.001)"
1637149730499871566, 20512, 1636513563, 921221971, base_link, 0.00388215272607, -0.0135882602235, -0.155650917714, 0.98771103056, "(0.0012857495227871496, 0.0, 0.0, 0.0, 0.0012851239146983162, 0.0, 0.0, 0.0, 0.004690447189198643)", 0.00976133523245, -0.048435639201, -0.748552430419, "(0.001, 0.0, 0.0, 0.0, 0.001, 0.0, 0.0, 0.0, 0.001)", -0.189365415902, 0.740601390123, -0.217612616669, "(0.001, 0.0, 0.0, 0.0, 0.001, 0.0, 0.0, 0.0, 0.001)"
1637149730517069394, 20513, 1636513563, 938529968, base_link, 0.00392111338606, -0.0138834009692, -0.158766416997, 0.987210768216, "(0.0012857495227871496, 0.0, 0.0, 0.0, 0.0012851239146983162, 0.0, 0.0, 0.0, 0.004690447189198643)", 0.0064695399788, -0.0449119969223, -0.503408865947, "(0.001, 0.0, 0.0, 0.0, 0.001, 0.0, 0.0, 0.0, 0.001)", -0.0129510591855, -0.0672877669244, -0.363736665239, "(0.001, 0.0, 0.0, 0.0, 0.001, 0.0, 0.0, 0.0, 0.001)"
1637149730540866751, 20514, 1636513563, 962208986, base_link, 0.00396516646192, -0.0142379938909, -0.161945118242, 0.986689077502, "(0.0012857495227871496, 0.0, 0.0, 0.0, 0.0012851239146983162, 0.0, 0.0, 0.0, 0.004690447189198643)", 0.0112357210862, -0.0794308294093, -0.764668946427, "(0.001, 0.0, 0.0, 0.0, 0.001, 0.0, 0.0, 0.0, 0.001)", 0.201872333472, 0.74687923223, -0.750644227638, "(0.001, 0.0, 0.0, 0.0, 0.001, 0.0, 0.0, 0.0, 0.001)"
1637149730570458536, 20515, 1636513563, 979847908, base_link, 0.00396019287424, -0.0146094440553, -0.165187360947, 0.986146042328, "(0.0012857495227871496, 0.0, 0.0, 0.0, 0.0012851239146983162, 0.0, 0.0, 0.0, 0.004690447189198643)", 0.004622248823, -0.0587546230409, -0.51988493771, "(0.001, 0.0, 0.0, 0.0, 0.001, 0.0, 0.0, 0.0, 0.001)", -0.712874246385, 0.317943490446, -0.591079249284, "(0.001, 0.0, 0.0, 0.0, 0.001, 0.0, 0.0, 0.0, 0.001)"
1637149730577037694, 20516, 1636513563, 998465061, base_link, 0.00403665906878, -0.0149987725901, -0.168492335116, 0.985580577737, "(0.0012857495227871496, 0.0, 0.0, 0.0, 0.0012851239146983162, 0.0, 0.0, 0.0, 0.004690447189198643)", 0.014418374673, -0.0929716544834, -0.795236600502, "(0.001, 0.0, 0.0, 0.0, 0.001, 0.0, 0.0, 0.0, 0.001)", 0.288108183464, 0.169748290574, -1.25506419016, "(0.001, 0.0, 0.0, 0.0, 0.001, 0.0, 0.0, 0.0, 0.001)"
1637149730598285117, 20517, 1636513564, 19341945, base_link, 0.00408165214112, -0.0154448703291, -0.171838695182, 0.984995562901, "(0.0012857495227871496, 0.0, 0.0, 0.0, 0.0012851239146983162, 0.0, 0.0, 0.0, 0.004690447189198643)", 0.0119670120643, -0.0678915400968, -0.53871255161, "(0.001, 0.0, 0.0, 0.0, 0.001, 0.0, 0.0, 0.0, 0.001)", -0.212926426615, 0.438329411379, -0.582859623465, "(0.001, 0.0, 0.0, 0.0, 0.001, 0.0, 0.0, 0.0, 0.001)"
1637149730617845690, 20518, 1636513564, 39266109, base_link, 0.00417460398823, -0.0159531234169, -0.175210674167, 0.984392853587, "(0.0012857495227871496, 0.0, 0.0, 0.0, 0.0012851239146983162, 0.0, 0.0, 0.0, 0.004690447189198643)", 0.0236610747078, -0.113642619772, -0.816399297199, "(0.001, 0.0, 0.0, 0.0, 0.001, 0.0, 0.0, 0.0, 0.001)", -0.304397648311, -0.592286342462, -1.59913821397, "(0.001, 0.0, 0.0, 0.0, 0.001, 0.0, 0.0, 0.0, 0.001)"
1637149730637184670, 20519, 1636513564, 58610916, base_link, 0.00432782612199, -0.0164911035436, -0.178618948692, 0.983770595511, "(0.0012857495227871496, 0.0, 0.0, 0.0, 0.0012851239146983162, 0.0, 0.0, 0.0, 0.004690447189198643)", 0.0265220568698, -0.0823725967527, -0.55124557865, "(0.001, 0.0, 0.0, 0.0, 0.001, 0.0, 0.0, 0.0, 0.001)", 0.413736956291, 0.248676536566, -0.457554469523, "(0.001, 0.0, 0.0, 0.0, 0.001, 0.0, 0.0, 0.0, 0.001)"
1637149730667264035, 20520, 1636513564, 78861951, base_link, 0.0043578565662, -0.0171132269391, -0.182035688991, 0.983133335048, "(0.0012857495227871496, 0.0, 0.0, 0.0, 0.0012851239146983162, 0.0, 0.0, 0.0, 0.004690447189198643)", 0.0309354890852, -0.138509429721, -0.830899567424, "(0.001, 0.0, 0.0, 0.0, 0.001, 0.0, 0.0, 0.0, 0.001)", 1.02817513084, 0.55840443367, -0.132769268062, "(0.001, 0.0, 0.0, 0.0, 0.001, 0.0, 0.0, 0.0, 0.001)"
1637149730677814735, 20521, 1636513564, 99200963, base_link, 0.00449759394259, -0.0178362337678, -0.185430789015, 0.982485146401, "(0.0012857495227871496, 0.0, 0.0, 0.0, 0.0012851239146983162, 0.0, 0.0, 0.0, 0.004690447189198643)", 0.0267373064604, -0.106942537349, -0.553698663583, "(0.001, 0.0, 0.0, 0.0, 0.001, 0.0, 0.0, 0.0, 0.001)", 0.623842242862, -0.355534601918, -1.06882435597, "(0.001, 0.0, 0.0, 0.0, 0.001, 0.0, 0.0, 0.0, 0.001)"
1637149730697941052, 20522, 1636513564, 119152069, base_link, 0.00466893986861, -0.0186361387107, -0.188878787589, 0.98181245609, "(0.0012857495227871496, 0.0, 0.0, 0.0, 0.0012851239146983162, 0.0, 0.0, 0.0, 0.004690447189198643)", 0.0541691027334, -0.177149161168, -0.836871212274, "(0.001, 0.0, 0.0, 0.0, 0.001, 0.0, 0.0, 0.0, 0.001)", 0.575805604106, 0.208552732927, -1.54257057911, "(0.001, 0.0, 0.0, 0.0, 0.001, 0.0, 0.0, 0.0, 0.001)"
1637149730719491883, 20523, 1636513564, 139136075, base_link, 0.0048235311852, -0.019487170817, -0.192307629557, 0.981129328547, "(0.0012857495227871496, 0.0, 0.0, 0.0, 0.0012851239146983162, 0.0, 0.0, 0.0, 0.004690447189198643)", 0.0404361350877, -0.127866193233, -0.55893313083, "(0.001, 0.0, 0.0, 0.0, 0.001, 0.0, 0.0, 0.0, 0.001)", 1.17266912774, 0.0308614663183, 0.015746940282, "(0.001, 0.0, 0.0, 0.0, 0.001, 0.0, 0.0, 0.0, 0.001)"
1637149730738054635, 20524, 1636513564, 159380912, base_link, 0.00497959943839, -0.0203329871559, -0.195757377172, 0.980428897221, "(0.0012857495227871496, 0.0, 0.0, 0.0, 0.0012851239146983162, 0.0, 0.0, 0.0, 0.004690447189198643)", 0.0583654871273, -0.198773674913, -0.842394044695, "(0.001, 0.0, 0.0, 0.0, 0.001, 0.0, 0.0, 0.0, 0.001)", 2.60402237783, 0.0460958702261, -0.692817328492, "(0.001, 0.0, 0.0, 0.0, 0.001, 0.0, 0.0, 0.0, 0.001)"
1637149730758545341, 20525, 1636513564, 178976058, base_link, 0.00513201993571, -0.0211596067834, -0.199212390704, 0.979714426148, "(0.0012857495227871496, 0.0, 0.0, 0.0, 0.0012851239146983162, 0.0, 0.0, 0.0, 0.004690447189198643)", 0.0412330584624, -0.131302561099, -0.56255172047, "(0.001, 0.0, 0.0, 0.0, 0.001, 0.0, 0.0, 0.0, 0.001)", 1.55225564559, -0.0792998812237, 0.258960861188, "(0.001, 0.0, 0.0, 0.0, 0.001, 0.0, 0.0, 0.0, 0.001)"
1637149730790985319, 20526, 1636513564, 198837041, base_link, 0.00529966929005, -0.0218396784461, -0.202671852272, 0.978988795772, "(0.0012857495227871496, 0.0, 0.0, 0.0, 0.0012851239146983162, 0.0, 0.0, 0.0, 0.004690447189198643)", 0.0564346125104, -0.176281383472, -0.846691920989, "(0.001, 0.0, 0.0, 0.0, 0.001, 0.0, 0.0, 0.0, 0.001)", 3.4926866744, -0.491973502002, 0.291641845682, "(0.001, 0.0, 0.0, 0.0, 0.001, 0.0, 0.0, 0.0, 0.001)"
1637149730798382056, 20527, 1636513564, 219790935, base_link, 0.00545194573364, -0.0223748294765, -0.206193246041, 0.978240250951, "(0.0012857495227871496, 0.0, 0.0, 0.0, 0.0012851239146983162, 0.0, 0.0, 0.0, 0.004690447189198643)", 0.0329963729265, -0.0963984340203, -0.571455832414, "(0.001, 0.0, 0.0, 0.0, 0.001, 0.0, 0.0, 0.0, 0.001)", 2.223499645, 0.281549150792, 0.836383419285, "(0.001, 0.0, 0.0, 0.0, 0.001, 0.0, 0.0, 0.0, 0.001)"
1637149730817399597, 20528, 1636513564, 238617897, base_link, 0.00557391757493, -0.0226973964769, -0.209784031545, 0.977468372759, "(0.0012857495227871496, 0.0, 0.0, 0.0, 0.0012851239146983162, 0.0, 0.0, 0.0, 0.004690447189198643)", 0.0366172190279, -0.106211584203, -0.870894856065, "(0.001, 0.0, 0.0, 0.0, 0.001, 0.0, 0.0, 0.0, 0.001)", 3.48933191145, 0.352615383967, 1.34686026238, "(0.001, 0.0, 0.0, 0.0, 0.001, 0.0, 0.0, 0.0, 0.001)"
1637149730838641216, 20529, 1636513564, 259556055, base_link, 0.00557391757493, -0.0226973964769, -0.209784031545, 0.977468372759, "(0.0012857495227871496, 0.0, 0.0, 0.0, 0.0012851239146983162, 0.0, 0.0, 0.0, 0.004690447189198643)", 0.0182185043375, -0.0457234214743, -0.590146272145, "(0.001, 0.0, 0.0, 0.0, 0.001, 0.0, 0.0, 0.0, 0.001)", 2.4653012784, -0.159800215723, 0.849115719369, "(0.001, 0.0, 0.0, 0.0, 0.001, 0.0, 0.0, 0.0, 0.001)"
1637149730864572634, 20530, 1636513564, 279194116, base_link, 0.00583135820535, -0.0229356791697, -0.217092852455, 0.975864049597, "(0.0012857495227871496, 0.0, 0.0, 0.0, 0.0012851239146983162, 0.0, 0.0, 0.0, 0.004690447189198643)", 0.0182359442526, -0.0334423199807, -0.896199185419, "(0.001, 0.0, 0.0, 0.0, 0.001, 0.0, 0.0, 0.0, 0.001)", 2.97095001499, 0.206866051741, 1.64311636349, "(0.001, 0.0, 0.0, 0.0, 0.001, 0.0, 0.0, 0.0, 0.001)"
1637149730882455603, 20531, 1636513564, 302613973, base_link, 0.00591567511712, -0.0229112885849, -0.220801742854, 0.9750316241, "(0.0012857495227871496, 0.0, 0.0, 0.0, 0.0012851239146983162, 0.0, 0.0, 0.0, 0.004690447189198643)", 0.00401675714076, -0.00632398230167, -0.605533211682, "(0.001, 0.0, 0.0, 0.0, 0.001, 0.0, 0.0, 0.0, 0.001)", 2.05994136823, 0.145251819946, 1.13324130847, "(0.001, 0.0, 0.0, 0.0, 0.001, 0.0, 0.0, 0.0, 0.001)"
1637149730899116641, 20532, 1636513564, 320559024, base_link, 0.00595607934014, -0.0228987947389, -0.224547645434, 0.974175818448, "(0.0017953115201155279, 0.0, 0.0, 0.0, 0.0017945542610686843, 0.0, 0.0, 0.0, 0.00527187860855266)", -0.00533810464306, -0.00607299865938, -0.916681391341, "(0.001, 0.0, 0.0, 0.0, 0.001, 0.0, 0.0, 0.0, 0.001)", 2.10034686305, 0.328161129347, 1.15857492682, "(0.001, 0.0, 0.0, 0.0, 0.001, 0.0, 0.0, 0.0, 0.001)"
1637149730918722938, 20533, 1636513564, 340126037, base_link, 0.00594340414707, -0.0229057882505, -0.22829720746, 0.973303850746, "(0.0017528047522299417, 0.0, 0.0, 0.0, 0.0017517172217063198, 0.0, 0.0, 0.0, 0.005265453848968316)", -0.0106493279627, -0.00567865923454, -0.614255315234, "(0.001, 0.0, 0.0, 0.0, 0.001, 0.0, 0.0, 0.0, 0.001)", 1.110225428, 0.22321640212, 0.765233443505, "(0.001, 0.0, 0.0, 0.0, 0.001, 0.0, 0.0, 0.0, 0.001)"
1637149730937249624, 20534, 1636513564, 358537912, base_link, 0.00592714440168, -0.0229578630087, -0.232060841718, 0.972412243458, "(0.0017528047522299417, 0.0, 0.0, 0.0, 0.0017517172217063198, 0.0, 0.0, 0.0, 0.005265453848968316)", -0.0193337215015, -0.0185956055415, -0.925572900041, "(0.001, 0.0, 0.0, 0.0, 0.001, 0.0, 0.0, 0.0, 0.001)", 1.71915185946, -0.157317547273, 0.594160498778, "(0.001, 0.0, 0.0, 0.0, 0.001, 0.0, 0.0, 0.0, 0.001)"
1637149730970455484, 20535, 1636513564, 380075931, base_link, 0.00586341633708, -0.0230824783467, -0.235832939129, 0.971501746969, "(0.0017528047522299417, 0.0, 0.0, 0.0, 0.0017517172217063198, 0.0, 0.0, 0.0, 0.005265453848968316)", -0.0163116097291, -0.0226903341139, -0.619015270786, "(0.001, 0.0, 0.0, 0.0, 0.001, 0.0, 0.0, 0.0, 0.001)", 1.23784123282, 0.249880324887, 0.545027274804, "(0.001, 0.0, 0.0, 0.0, 0.001, 0.0, 0.0, 0.0, 0.001)"
1637149730977627843, 20536, 1636513564, 399106979, base_link, 0.00577324720054, -0.023139949261, -0.239605987942, 0.970577242113, "(0.0017528047522299417, 0.0, 0.0, 0.0, 0.0017517172217063198, 0.0, 0.0, 0.0, 0.005265453848968316)", -0.0313484316463, -0.0313912715344, -0.929906469632, "(0.001, 0.0, 0.0, 0.0, 0.001, 0.0, 0.0, 0.0, 0.001)", 1.79082664895, 0.0234115941218, 0.32806104616, "(0.001, 0.0, 0.0, 0.0, 0.001, 0.0, 0.0, 0.0, 0.001)"
1637149730996992171, 20537, 1636513564, 418428897, base_link, 0.00571803968955, -0.0231549296343, -0.243387362007, 0.96963588283, "(0.0017528047522299417, 0.0, 0.0, 0.0, 0.0017517172217063198, 0.0, 0.0, 0.0, 0.005265453848968316)", -0.0213044482098, -0.0170735343848, -0.62241151265, "(0.001, 0.0, 0.0, 0.0, 0.001, 0.0, 0.0, 0.0, 0.001)", 1.53314981695, -0.0254578811288, 0.121841690988, "(0.001, 0.0, 0.0, 0.0, 0.001, 0.0, 0.0, 0.0, 0.001)"
1637149731017624739, 20538, 1636513564, 439090967, base_link, 0.00562702500038, -0.0231533268833, -0.247189980921, 0.968674028441, "(0.0017528047522299417, 0.0, 0.0, 0.0, 0.0017517172217063198, 0.0, 0.0, 0.0, 0.005265453848968316)", -0.0369509949702, -0.0183146866254, -0.936747875514, "(0.001, 0.0, 0.0, 0.0, 0.001, 0.0, 0.0, 0.0, 0.001)", 1.85168759077, 0.375055633721, 0.291576757073, "(0.001, 0.0, 0.0, 0.0, 0.001, 0.0, 0.0, 0.0, 0.001)"
1637149731038702392, 20539, 1636513564, 460122108, base_link, 0.0055594852279, -0.0230980621292, -0.250998631957, 0.967695850154, "(0.0017528047522299417, 0.0, 0.0, 0.0, 0.0017517172217063198, 0.0, 0.0, 0.0, 0.005265453848968316)", -0.0266125191515, -0.00501339550854, -0.627768752949, "(0.001, 0.0, 0.0, 0.0, 0.001, 0.0, 0.0, 0.0, 0.001)", 1.28332368798, -0.194072094138, -0.236368381864, "(0.001, 0.0, 0.0, 0.0, 0.001, 0.0, 0.0, 0.0, 0.001)"
1637149731067561953, 20540, 1636513564, 478646993, base_link, 0.00552876740224, -0.0229844082196, -0.254835705596, 0.966695356802, "(0.0017528047522299417, 0.0, 0.0, 0.0, 0.0017517172217063198, 0.0, 0.0, 0.0, 0.005265453848968316)", -0.0366700300188, 0.0045977872085, -0.947397772669, "(0.001, 0.0, 0.0, 0.0, 0.001, 0.0, 0.0, 0.0, 0.001)", 2.13483053392, -0.301168641165, -0.297255481741, "(0.001, 0.0, 0.0, 0.0, 0.001, 0.0, 0.0, 0.0, 0.001)"
1637149731077702506, 20541, 1636513564, 499098062, base_link, 0.00549653168724, -0.0228405479848, -0.258651440859, 0.965685005397, "(0.0017528047522299417, 0.0, 0.0, 0.0, 0.0017517172217063198, 0.0, 0.0, 0.0, 0.005265453848968316)", -0.0231749442802, 0.0104861048038, -0.63166875024, "(0.001, 0.0, 0.0, 0.0, 0.001, 0.0, 0.0, 0.0, 0.001)", 1.08057386589, -0.360082439767, -0.265160681812, "(0.001, 0.0, 0.0, 0.0, 0.001, 0.0, 0.0, 0.0, 0.001)"
1637149731097928636, 20542, 1636513564, 519305944, base_link, 0.00551183040384, -0.0227456409579, -0.262463746225, 0.964657989891, "(0.0017528047522299417, 0.0, 0.0, 0.0, 0.0017517172217063198, 0.0, 0.0, 0.0, 0.005265453848968316)", -0.0285615167038, 0.0142819481621, -0.947915251042, "(0.001, 0.0, 0.0, 0.0, 0.001, 0.0, 0.0, 0.0, 0.001)", 1.68732453733, -0.294036602529, -0.717402520747, "(0.001, 0.0, 0.0, 0.0, 0.001, 0.0, 0.0, 0.0, 0.001)"
1637149731117152250, 20543, 1636513564, 538536071, base_link, 0.00550182614909, -0.0226926773566, -0.266288080146, 0.963610621919, "(0.0017528047522299417, 0.0, 0.0, 0.0, 0.0017517172217063198, 0.0, 0.0, 0.0, 0.005265453848968316)", -0.0167337589293, 0.00413705975925, -0.632805820423, "(0.001, 0.0, 0.0, 0.0, 0.001, 0.0, 0.0, 0.0, 0.001)", 0.560843944706, -0.132034114435, -0.210860104277, "(0.001, 0.0, 0.0, 0.0, 0.001, 0.0, 0.0, 0.0, 0.001)"
1637149731138088150, 20544, 1636513564, 559586048, base_link, 0.00554246651981, -0.0226849091281, -0.270080285438, 0.962554577871, "(0.0017528047522299417, 0.0, 0.0, 0.0, 0.0017517172217063198, 0.0, 0.0, 0.0, 0.005265453848968316)", -0.0183724459964, -0.00155311293833, -0.947573342532, "(0.001, 0.0, 0.0, 0.0, 0.001, 0.0, 0.0, 0.0, 0.001)", 1.84128186776, -1.00942012198, -0.790581329369, "(0.001, 0.0, 0.0, 0.0, 0.001, 0.0, 0.0, 0.0, 0.001)"
1637149731164883787, 20545, 1636513564, 580671072, base_link, 0.00556333269195, -0.0227100251572, -0.273876080225, 0.961480731355, "(0.0017528047522299417, 0.0, 0.0, 0.0, 0.0017517172217063198, 0.0, 0.0, 0.0, 0.005265453848968316)", -0.00797505727394, -0.00725625237709, -0.63062362595, "(0.001, 0.0, 0.0, 0.0, 0.001, 0.0, 0.0, 0.0, 0.001)", 0.824344082352, -0.432905323276, -0.348168262442, "(0.001, 0.0, 0.0, 0.0, 0.001, 0.0, 0.0, 0.0, 0.001)"
1637149731177076935, 20546, 1636513564, 598422050, base_link, 0.00562974658509, -0.0227169283697, -0.277680763674, 0.960388275961, "(0.0017528047522299417, 0.0, 0.0, 0.0, 0.0017517172217063198, 0.0, 0.0, 0.0, 0.005265453848968316)", -0.00714953540956, -0.0107452340219, -0.947871002168, "(0.001, 0.0, 0.0, 0.0, 0.001, 0.0, 0.0, 0.0, 0.001)", 1.53157282901, -0.936836157206, -0.532442489884, "(0.001, 0.0, 0.0, 0.0, 0.001, 0.0, 0.0, 0.0, 0.001)"
1637149731198721639, 20547, 1636513564, 620212078, base_link, 0.00573843414554, -0.02272125267, -0.281502195533, 0.959274376266, "(0.0017528047522299417, 0.0, 0.0, 0.0, 0.0017517172217063198, 0.0, 0.0, 0.0, 0.005265453848968316)", -0.000159914364966, -0.00516923412771, -0.635668877641, "(0.001, 0.0, 0.0, 0.0, 0.001, 0.0, 0.0, 0.0, 0.001)", 1.30532429592, -0.362947932711, -0.384641487174, "(0.001, 0.0, 0.0, 0.0, 0.001, 0.0, 0.0, 0.0, 0.001)"
1637149731216929022, 20548, 1636513564, 638371944, base_link, 0.0058163300549, -0.0227495297107, -0.285386644115, 0.958124779224, "(0.0017528047522299417, 0.0, 0.0, 0.0, 0.0017517172217063198, 0.0, 0.0, 0.0, 0.005265453848968316)", 0.00125747544715, -0.00915771684668, -0.963325699795, "(0.001, 0.0, 0.0, 0.0, 0.001, 0.0, 0.0, 0.0, 0.001)", 0.705011506295, -0.303580289192, -0.344586263165, "(0.001, 0.0, 0.0, 0.0, 0.001, 0.0, 0.0, 0.0, 0.001)"
1637149731239310730, 20549, 1636513564, 660667896, base_link, 0.00588777640676, -0.0227811147734, -0.289258142262, 0.956961902081, "(0.0017528047522299417, 0.0, 0.0, 0.0, 0.0017517172217063198, 0.0, 0.0, 0.0, 0.005265453848968316)", 0.00107734493177, -0.00897740397912, -0.646441185969, "(0.001, 0.0, 0.0, 0.0, 0.001, 0.0, 0.0, 0.0, 0.001)", 1.27591888866, -0.180313441249, 0.404295700986, "(0.001, 0.0, 0.0, 0.0, 0.001, 0.0, 0.0, 0.0, 0.001)"
1637149731270318327, 20550, 1636513564, 679742097, base_link, 0.00584386010194, -0.0228252022102, -0.293135773154, 0.955780454885, "(0.0017528047522299417, 0.0, 0.0, 0.0, 0.0017517172217063198, 0.0, 0.0, 0.0, 0.005265453848968316)", -0.0149479171559, -0.0196944782533, -0.970622985781, "(0.001, 0.0, 0.0, 0.0, 0.001, 0.0, 0.0, 0.0, 0.001)", 1.16289963335, -0.650414003792, 0.436375193207, "(0.001, 0.0, 0.0, 0.0, 0.001, 0.0, 0.0, 0.0, 0.001)"
1637149731277066924, 20551, 1636513564, 698535919, base_link, 0.00583577270003, -0.0228662022478, -0.297006189222, 0.954583890559, "(0.0017528047522299417, 0.0, 0.0, 0.0, 0.0017517172217063198, 0.0, 0.0, 0.0, 0.005265453848968316)", -0.0121247385373, -0.0152780625598, -0.648055100218, "(0.001, 0.0, 0.0, 0.0, 0.001, 0.0, 0.0, 0.0, 0.001)", 0.515819111494, -0.197868771077, 0.196393879762, "(0.001, 0.0, 0.0, 0.0, 0.001, 0.0, 0.0, 0.0, 0.001)"
1637149731297581745, 20552, 1636513564, 718945026, base_link, 0.00580191536397, -0.022841867274, -0.300930930775, 0.95335468834, "(0.0017528047522299417, 0.0, 0.0, 0.0, 0.0017517172217063198, 0.0, 0.0, 0.0, 0.005265453848968316)", -0.0238980743431, -0.0172005861675, -0.980092118396, "(0.001, 0.0, 0.0, 0.0, 0.001, 0.0, 0.0, 0.0, 0.001)", 2.25022147961, 0.452844707935, 0.262372714081, "(0.001, 0.0, 0.0, 0.0, 0.001, 0.0, 0.0, 0.0, 0.001)"
1637149731318728626, 20553, 1636513564, 740063905, base_link, 0.00577127736089, -0.0227918154038, -0.304820989953, 0.952119419817, "(0.0017528047522299417, 0.0, 0.0, 0.0, 0.0017517172217063198, 0.0, 0.0, 0.0, 0.005265453848968316)", -0.0195055928585, -0.00284073561687, -0.653339529434, "(0.001, 0.0, 0.0, 0.0, 0.001, 0.0, 0.0, 0.0, 0.001)", 1.91615582375, -0.0719357761071, -0.271695064581, "(0.001, 0.0, 0.0, 0.0, 0.001, 0.0, 0.0, 0.0, 0.001)"
1637149731337057362, 20554, 1636513564, 758418083, base_link, 0.00582468397843, -0.022707308625, -0.308627277748, 0.950894134287, "(0.0017528047522299417, 0.0, 0.0, 0.0, 0.0017517172217063198, 0.0, 0.0, 0.0, 0.005265453848968316)", -0.0207345628531, 0.00333102372796, -0.969471677366, "(0.001, 0.0, 0.0, 0.0, 0.001, 0.0, 0.0, 0.0, 0.001)", 2.81563444838, -0.778557280377, -1.05530198326, "(0.001, 0.0, 0.0, 0.0, 0.001, 0.0, 0.0, 0.0, 0.001)"
1637149731367381563, 20555, 1636513564, 779206037, base_link, 0.00590643398814, -0.0226021421921, -0.312434983585, 0.949651851069, "(0.0017528047522299417, 0.0, 0.0, 0.0, 0.0017517172217063198, 0.0, 0.0, 0.0, 0.005265453848968316)", -0.0075258591066, 0.00814773123515, -0.641880734355, "(0.001, 0.0, 0.0, 0.0, 0.001, 0.0, 0.0, 0.0, 0.001)", 1.87404026731, -0.233080596089, -0.0605030708144, "(0.001, 0.0, 0.0, 0.0, 0.001, 0.0, 0.0, 0.0, 0.001)"
1637149731378551615, 20556, 1636513564, 800045013, base_link, 0.00599875528467, -0.0224520749691, -0.316211072313, 0.948404173869, "(0.0017528047522299417, 0.0, 0.0, 0.0, 0.0017517172217063198, 0.0, 0.0, 0.0, 0.005265453848968316)", -0.00977164262447, 0.0227847209544, -0.957945747526, "(0.001, 0.0, 0.0, 0.0, 0.001, 0.0, 0.0, 0.0, 0.001)", 2.19450230459, -0.521276219072, -0.190246503414, "(0.001, 0.0, 0.0, 0.0, 0.001, 0.0, 0.0, 0.0, 0.001)"
1637149731397248449, 20557, 1636513564, 818686008, base_link, 0.00612192220193, -0.0223096027438, -0.319984471861, 0.94714029661, "(0.0017528047522299417, 0.0, 0.0, 0.0, 0.0017517172217063198, 0.0, 0.0, 0.0, 0.005265453848968316)", -0.00303275923707, 0.0184053753841, -0.637961169661, "(0.001, 0.0, 0.0, 0.0, 0.001, 0.0, 0.0, 0.0, 0.001)", 1.67714392527, -0.387190593763, -0.0731412281166, "(0.001, 0.0, 0.0, 0.0, 0.001, 0.0, 0.0, 0.0, 0.001)"
1637149731417472895, 20558, 1636513564, 838882923, base_link, 0.00625235953228, -0.0221061732192, -0.323756275447, 0.945861564508, "(0.0017528047522299417, 0.0, 0.0, 0.0, 0.0017517172217063198, 0.0, 0.0, 0.0, 0.005265453848968316)", -0.00414342864884, 0.0366242871118, -0.955677517215, "(0.001, 0.0, 0.0, 0.0, 0.001, 0.0, 0.0, 0.0, 0.001)", 1.52020749213, -0.262730334516, 0.499156715967, "(0.001, 0.0, 0.0, 0.0, 0.001, 0.0, 0.0, 0.0, 0.001)"
1637149731439171604, 20559, 1636513564, 860523939, base_link, 0.00637123661707, -0.0218814634391, -0.327474107712, 0.944585262261, "(0.0017528047522299417, 0.0, 0.0, 0.0, 0.0017517172217063198, 0.0, 0.0, 0.0, 0.005265453848968316)", -0.00450501073034, 0.0290890483805, -0.632968391656, "(0.001, 0.0, 0.0, 0.0, 0.001, 0.0, 0.0, 0.0, 0.001)", 1.4350990478, -0.837241156601, 0.0496507175991, "(0.001, 0.0, 0.0, 0.0, 0.001, 0.0, 0.0, 0.0, 0.001)"
1637149731466468339, 20560, 1636513564, 878736972, base_link, 0.00650077546978, -0.0217647975876, -0.331236133995, 0.943274433577, "(0.0017528047522299417, 0.0, 0.0, 0.0, 0.0017517172217063198, 0.0, 0.0, 0.0, 0.005265453848968316)", -0.000925365448813, 0.0338788737518, -0.951697808066, "(0.001, 0.0, 0.0, 0.0, 0.001, 0.0, 0.0, 0.0, 0.001)", 0.361851326464, -0.0620028612413, 0.214276084256, "(0.001, 0.0, 0.0, 0.0, 0.001, 0.0, 0.0, 0.0, 0.001)"
1637149731477222171, 20561, 1636513564, 898564100, base_link, 0.00658546927459, -0.0216181688862, -0.334989175712, 0.941950921505, "(0.0017528047522299417, 0.0, 0.0, 0.0, 0.0017517172217063198, 0.0, 0.0, 0.0, 0.005265453848968316)", -0.00397485769572, 0.0186770741666, -0.63704624179, "(0.001, 0.0, 0.0, 0.0, 0.001, 0.0, 0.0, 0.0, 0.001)", 0.88181900182, -0.149014889308, 0.23507885529, "(0.001, 0.0, 0.0, 0.0, 0.001, 0.0, 0.0, 0.0, 0.001)"
1637149731498302575, 20562, 1636513564, 919709920, base_link, 0.00670188868906, -0.0215880206175, -0.338730798897, 0.940611762595, "(0.0017528047522299417, 0.0, 0.0, 0.0, 0.0017517172217063198, 0.0, 0.0, 0.0, 0.005265453848968316)", -0.00127776206403, 0.0143804126884, -0.955233986597, "(0.001, 0.0, 0.0, 0.0, 0.001, 0.0, 0.0, 0.0, 0.001)", 0.777872985631, -0.690939222707, -0.230656405558, "(0.001, 0.0, 0.0, 0.0, 0.001, 0.0, 0.0, 0.0, 0.001)"
1637149731516972474, 20563, 1636513564, 938474893, base_link, 0.00675694702547, -0.0215733851632, -0.342472616075, 0.939255790484, "(0.0017528047522299417, 0.0, 0.0, 0.0, 0.0017517172217063198, 0.0, 0.0, 0.0, 0.005265453848968316)", -0.000705371210592, 0.00154885533722, -0.635834764431, "(0.001, 0.0, 0.0, 0.0, 0.001, 0.0, 0.0, 0.0, 0.001)", 0.0858818615225, -0.0730738147417, 0.122052157814, "(0.001, 0.0, 0.0, 0.0, 0.001, 0.0, 0.0, 0.0, 0.001)"
1637149731537526241, 20564, 1636513564, 958786964, base_link, 0.00680350526331, -0.0216446111788, -0.346215511826, 0.937880612069, "(0.0017528047522299417, 0.0, 0.0, 0.0, 0.0017517172217063198, 0.0, 0.0, 0.0, 0.005265453848968316)", -0.00223726965723, -0.0155821970433, -0.956436807901, "(0.001, 0.0, 0.0, 0.0, 0.001, 0.0, 0.0, 0.0, 0.001)", 0.674170257631, -0.676228031437, -0.0870562096351, "(0.001, 0.0, 0.0, 0.0, 0.001, 0.0, 0.0, 0.0, 0.001)"
1637149731563596211, 20565, 1636513564, 978908061, base_link, 0.00682567790004, -0.0217832708399, -0.349977288181, 0.936480003519, "(0.0017528047522299417, 0.0, 0.0, 0.0, 0.0017517172217063198, 0.0, 0.0, 0.0, 0.005265453848968316)", -0.00026079731168, -0.0220275554219, -0.639618170526, "(0.001, 0.0, 0.0, 0.0, 0.001, 0.0, 0.0, 0.0, 0.001)", -0.351211806657, -0.0543520476619, -0.129487824594, "(0.001, 0.0, 0.0, 0.0, 0.001, 0.0, 0.0, 0.0, 0.001)"
1637149731577066125, 20566, 1636513564, 998476028, base_link, 0.00682027215748, -0.0219695047134, -0.353771497609, 0.93504895713, "(0.0017528047522299417, 0.0, 0.0, 0.0, 0.0017517172217063198, 0.0, 0.0, 0.0, 0.005265453848968316)", -0.00194454444752, -0.0464282789627, -0.967315256578, "(0.001, 0.0, 0.0, 0.0, 0.001, 0.0, 0.0, 0.0, 0.001)", -0.0582441396851, -0.0130465561796, -0.85983503571, "(0.001, 0.0, 0.0, 0.0, 0.001, 0.0, 0.0, 0.0, 0.001)"
