time, .header.seq, .header.stamp.secs, .header.stamp.nsecs, .header.frame_id, .orientation.x, .orientation.y, .orientation.z, .orientation.w, .orientation_covariance, .angular_velocity.x, .angular_velocity.y, .angular_velocity.z, .angular_velocity_covariance, .linear_acceleration.x, .linear_acceleration.y, .linear_acceleration.z, .linear_acceleration_covariance
1636558244847459544, 3695, 1636512861, 102406978, base_link, 0.00309775948805, -0.0139921463079, -0.697413884411, 0.71652529443, "(0.001414238201746798, 0.0, 0.0, 0.0, 0.0014145694047763002, 0.0, 0.0, 0.0, 0.0015535758502994157)", -0.000754141233917, 0.000560506556536, -0.00019734474681, "(0.001, 0.0, 0.0, 0.0, 0.001, 0.0, 0.0, 0.0, 0.001)", -0.396610441782, 0.0220266653888, -0.0833625635347, "(0.001, 0.0, 0.0, 0.0, 0.001, 0.0, 0.0, 0.0, 0.001)"
1636558245018262582, 3696, 1636512861, 120440959, base_link, 0.00309775948805, -0.0139921463079, -0.697413884411, 0.71652529443, "(0.001414238201746798, 0.0, 0.0, 0.0, 0.0014145694047763002, 0.0, 0.0, 0.0, 0.0015535758502994157)", -0.000971135978911, -0.00158333683607, -0.00100537918214, "(0.001, 0.0, 0.0, 0.0, 0.001, 0.0, 0.0, 0.0, 0.001)", 0.342732457702, -0.0179603050709, 0.113030663781, "(0.001, 0.0, 0.0, 0.0, 0.001, 0.0, 0.0, 0.0, 0.001)"
1636558245018298442, 3697, 1636512861, 141756057, base_link, 0.0030927426414, -0.0139913609645, -0.697417162497, 0.716522140772, "(0.001414238201746798, 0.0, 0.0, 0.0, 0.0014145694047763002, 0.0, 0.0, 0.0, 0.0015535758502994157)", -0.000236316904179, 0.00030771752975, -0.000222004644934, "(0.001, 0.0, 0.0, 0.0, 0.001, 0.0, 0.0, 0.0, 0.001)", -0.33729659751, 0.0454062382042, -0.0956880388202, "(0.001, 0.0, 0.0, 0.0, 0.001, 0.0, 0.0, 0.0, 0.001)"
1636558245018309088, 3698, 1636512861, 162249088, base_link, 0.00307735048362, -0.013997692096, -0.697417275307, 0.716521973588, "(0.001414238201746798, 0.0, 0.0, 0.0, 0.0014145694047763002, 0.0, 0.0, 0.0, 0.0015535758502994157)", -0.000222792487413, -0.00298103337285, -0.000356342336792, "(0.001, 0.0, 0.0, 0.0, 0.001, 0.0, 0.0, 0.0, 0.001)", 0.220933692637, 0.0129797724587, 0.0730196965715, "(0.001, 0.0, 0.0, 0.0, 0.001, 0.0, 0.0, 0.0, 0.001)"
1636558245018339790, 3699, 1636512861, 183856010, base_link, 0.0030778845997, -0.01399041285, -0.697420438092, 0.716519034993, "(0.001414238201746798, 0.0, 0.0, 0.0, 0.0014145694047763002, 0.0, 0.0, 0.0, 0.0015535758502994157)", -0.00092052847676, 0.000294328958866, -0.000175898019738, "(0.001, 0.0, 0.0, 0.0, 0.001, 0.0, 0.0, 0.0, 0.001)", -0.213377717839, -0.0570127850893, -0.0484950043593, "(0.001, 0.0, 0.0, 0.0, 0.001, 0.0, 0.0, 0.0, 0.001)"
1636558245018359930, 3700, 1636512861, 202209949, base_link, 0.0030779133086, -0.013990185001, -0.697422072802, 0.716517448176, "(0.001414238201746798, 0.0, 0.0, 0.0, 0.0014145694047763002, 0.0, 0.0, 0.0, 0.0015535758502994157)", -0.00101725799789, -0.000338394958763, -0.000962907034745, "(0.001, 0.0, 0.0, 0.0, 0.001, 0.0, 0.0, 0.0, 0.001)", 0.222051666159, -0.0403376730241, -0.0034963577795, "(0.001, 0.0, 0.0, 0.0, 0.001, 0.0, 0.0, 0.0, 0.001)"
1636558245018378931, 3701, 1636512861, 222409009, base_link, 0.00308109427054, -0.013994066955, -0.697421681219, 0.716517739846, "(0.001414238201746798, 0.0, 0.0, 0.0, 0.0014145694047763002, 0.0, 0.0, 0.0, 0.0015535758502994157)", 0.000523894087738, 0.000282938545682, 0.000192974814859, "(0.001, 0.0, 0.0, 0.0, 0.001, 0.0, 0.0, 0.0, 0.001)", -0.292600453305, 0.00415401731754, -0.0384528376623, "(0.001, 0.0, 0.0, 0.0, 0.001, 0.0, 0.0, 0.0, 0.001)"
1636558245105770363, 3702, 1636512861, 240852117, base_link, 0.00308102344833, -0.0139984852023, -0.697425526724, 0.716513910807, "(0.001414238201746798, 0.0, 0.0, 0.0, 0.0014145694047763002, 0.0, 0.0, 0.0, 0.0015535758502994157)", 0.0012082450384, -0.00118248684061, -0.0012221989251, "(0.001, 0.0, 0.0, 0.0, 0.001, 0.0, 0.0, 0.0, 0.001)", 0.348231774266, 0.0639388289882, 0.0532889155583, "(0.001, 0.0, 0.0, 0.0, 0.001, 0.0, 0.0, 0.0, 0.001)"
1636558245105811392, 3703, 1636512861, 262212991, base_link, 0.00307884156195, -0.0139922442367, -0.697425198712, 0.716514361361, "(0.001414238201746798, 0.0, 0.0, 0.0, 0.0014145694047763002, 0.0, 0.0, 0.0, 0.0015535758502994157)", -0.000872595647693, 0.000476501640292, 0.000278024579494, "(0.001, 0.0, 0.0, 0.0, 0.001, 0.0, 0.0, 0.0, 0.001)", -0.344444342494, -0.115032670416, -0.0537162210411, "(0.001, 0.0, 0.0, 0.0, 0.001, 0.0, 0.0, 0.0, 0.001)"
1636558245105819605, 3704, 1636512861, 282563924, base_link, 0.00307645388656, -0.0139952781075, -0.69742196794, 0.716517457049, "(0.001414238201746798, 0.0, 0.0, 0.0, 0.0014145694047763002, 0.0, 0.0, 0.0, 0.0015535758502994157)", 0.000403920647941, -0.0012070033416, 0.000154980149249, "(0.001, 0.0, 0.0, 0.0, 0.001, 0.0, 0.0, 0.0, 0.001)", 0.383389124766, -0.0542801596546, 0.0681889624182, "(0.001, 0.0, 0.0, 0.0, 0.001, 0.0, 0.0, 0.0, 0.001)"
1636558245105830793, 3705, 1636512861, 305269002, base_link, 0.00308130339664, -0.0139842166969, -0.697424862188, 0.716514835056, "(0.001414238201746798, 0.0, 0.0, 0.0, 0.0014145694047763002, 0.0, 0.0, 0.0, 0.0015535758502994157)", -0.00087098399341, 0.00143949484814, 6.54106562619e-05, "(0.001, 0.0, 0.0, 0.0, 0.001, 0.0, 0.0, 0.0, 0.001)", -0.22585186046, 0.00823163591713, -0.0548675610688, "(0.001, 0.0, 0.0, 0.0, 0.001, 0.0, 0.0, 0.0, 0.001)"
1636558245105835817, 3706, 1636512861, 322803020, base_link, 0.00306813551548, -0.0139954386174, -0.697420243362, 0.716519168196, "(0.0015597022089547524, 0.0, 0.0, 0.0, 0.0015600126542119619, 0.0, 0.0, 0.0, 0.0016993155187328274)", -0.000261259349968, -0.00188100624462, 0.000495688375673, "(0.001, 0.0, 0.0, 0.0, 0.001, 0.0, 0.0, 0.0, 0.001)", 0.163427521801, 0.0415485117093, 0.0619325991559, "(0.001, 0.0, 0.0, 0.0, 0.001, 0.0, 0.0, 0.0, 0.001)"
1636558245105843977, 3707, 1636512861, 341660022, base_link, 0.00306871460134, -0.0139866384963, -0.697418354056, 0.716521176491, "(0.001367942488112242, 0.0, 0.0, 0.0, 0.0013682153110514822, 0.0, 0.0, 0.0, 0.0014524912931444117)", -0.000625778526483, 0.000323204332653, 0.000735548951117, "(0.001, 0.0, 0.0, 0.0, 0.001, 0.0, 0.0, 0.0, 0.001)", -0.184583191145, -0.0460481836813, -0.0332841813687, "(0.001, 0.0, 0.0, 0.0, 0.001, 0.0, 0.0, 0.0, 0.001)"
1636558245107177701, 3708, 1636512861, 361191034, base_link, 0.00308204220814, -0.0139977846627, -0.697418176812, 0.716521074144, "(0.001367942488112242, 0.0, 0.0, 0.0, 0.0013682153110514822, 0.0, 0.0, 0.0, 0.0014524912931444117)", 0.00167259699353, 7.50585855167e-05, -0.000277242132875, "(0.001, 0.0, 0.0, 0.0, 0.001, 0.0, 0.0, 0.0, 0.001)", 0.218462221898, -0.0416312245083, -0.0457374930081, "(0.001, 0.0, 0.0, 0.0, 0.001, 0.0, 0.0, 0.0, 0.001)"
1636558245107237914, 3709, 1636512861, 381937026, base_link, 0.00308281950273, -0.0139890823989, -0.697415842558, 0.716523512766, "(0.001367942488112242, 0.0, 0.0, 0.0, 0.0013682153110514822, 0.0, 0.0, 0.0, 0.0014524912931444117)", 0.000320618019248, 0.000632930288424, 0.000727041895772, "(0.001, 0.0, 0.0, 0.0, 0.001, 0.0, 0.0, 0.0, 0.001)", -0.293252951761, 0.0505336301196, -0.0124377994535, "(0.001, 0.0, 0.0, 0.0, 0.001, 0.0, 0.0, 0.0, 0.001)"
1636558245107244683, 3710, 1636512861, 401371955, base_link, 0.00307853499176, -0.0139918037163, -0.697417008686, 0.71652234302, "(0.001367942488112242, 0.0, 0.0, 0.0, 0.0013682153110514822, 0.0, 0.0, 0.0, 0.0014524912931444117)", 0.000163228586014, -0.000857334885218, -1.52988253529e-05, "(0.001, 0.0, 0.0, 0.0, 0.001, 0.0, 0.0, 0.0, 0.001)", 0.301230390196, -0.0512265508064, -0.000155846579854, "(0.001, 0.0, 0.0, 0.0, 0.001, 0.0, 0.0, 0.0, 0.001)"
1636558245187527954, 3711, 1636512861, 422175884, base_link, 0.00308448740074, -0.0139928824176, -0.697416388932, 0.716522899584, "(0.001367942488112242, 0.0, 0.0, 0.0, 0.0013682153110514822, 0.0, 0.0, 0.0, 0.0014524912931444117)", -8.35698788704e-05, 0.000828583744485, 0.000259704405677, "(0.001, 0.0, 0.0, 0.0, 0.001, 0.0, 0.0, 0.0, 0.001)", -0.374681136746, 0.0204368620409, 0.0165719822657, "(0.001, 0.0, 0.0, 0.0, 0.001, 0.0, 0.0, 0.0, 0.001)"
1636558245187537789, 3712, 1636512861, 441643953, base_link, 0.00306450508949, -0.014006129662, -0.697419587331, 0.716519613373, "(0.001367942488112242, 0.0, 0.0, 0.0, 0.0013682153110514822, 0.0, 0.0, 0.0, 0.0014524912931444117)", -7.32591965713e-05, -0.00357354333428, -0.000911265126216, "(0.001, 0.0, 0.0, 0.0, 0.001, 0.0, 0.0, 0.0, 0.001)", 0.281046021, -0.0204024672966, 0.0762305785138, "(0.001, 0.0, 0.0, 0.0, 0.001, 0.0, 0.0, 0.0, 0.001)"
1636558245187558149, 3713, 1636512861, 461862087, base_link, 0.00308261859564, -0.0139847207043, -0.697420254977, 0.716519303994, "(0.001367942488112242, 0.0, 0.0, 0.0, 0.0013682153110514822, 0.0, 0.0, 0.0, 0.0014524912931444117)", -0.000237806778006, 0.00196511322541, 8.97593562336e-05, "(0.001, 0.0, 0.0, 0.0, 0.001, 0.0, 0.0, 0.0, 0.001)", -0.196033401499, -0.0498135468441, 0.0289717622961, "(0.001, 0.0, 0.0, 0.0, 0.001, 0.0, 0.0, 0.0, 0.001)"
1636558245187581091, 3714, 1636512861, 481478929, base_link, 0.00306467014039, -0.0139908308775, -0.697422458333, 0.716517117075, "(0.001367942488112242, 0.0, 0.0, 0.0, 0.0013682153110514822, 0.0, 0.0, 0.0, 0.0014524912931444117)", -0.0017973997243, -0.00108982078941, -0.000730835008684, "(0.001, 0.0, 0.0, 0.0, 0.001, 0.0, 0.0, 0.0, 0.001)", 0.100699866265, -0.120969279938, 0.0866742404293, "(0.001, 0.0, 0.0, 0.0, 0.001, 0.0, 0.0, 0.0, 0.001)"
1636558245374902394, 3715, 1636512861, 503396034, base_link, 0.00305398404038, -0.013958272043, -0.697422839823, 0.716517426387, "(0.001367942488112242, 0.0, 0.0, 0.0, 0.0013682153110514822, 0.0, 0.0, 0.0, 0.0014524912931444117)", -0.00277657895982, 0.0012363820489, -2.78987364336e-05, "(0.001, 0.0, 0.0, 0.0, 0.001, 0.0, 0.0, 0.0, 0.001)", -0.173725645677, -0.0473899384092, 0.0782433359137, "(0.001, 0.0, 0.0, 0.0, 0.001, 0.0, 0.0, 0.0, 0.001)"
1636558245374946042, 3716, 1636512861, 520960092, base_link, 0.00305106352829, -0.013961578161, -0.69742757737, 0.71651276309, "(0.001367942488112242, 0.0, 0.0, 0.0, 0.0013682153110514822, 0.0, 0.0, 0.0, 0.0014524912931444117)", -0.0022246812658, -5.9482660079e-05, -0.00112714393849, "(0.001, 0.0, 0.0, 0.0, 0.001, 0.0, 0.0, 0.0, 0.001)", 0.17246410509, -0.0717831392713, -0.0290293515439, "(0.001, 0.0, 0.0, 0.0, 0.001, 0.0, 0.0, 0.0, 0.001)"
1636558245374953476, 3717, 1636512861, 541774034, base_link, 0.00304568239569, -0.0139488209905, -0.697427442813, 0.716513165422, "(0.001367942488112242, 0.0, 0.0, 0.0, 0.0013682153110514822, 0.0, 0.0, 0.0, 0.0014524912931444117)", -0.00171261267998, 0.00112490030371, -9.97315494506e-05, "(0.001, 0.0, 0.0, 0.0, 0.001, 0.0, 0.0, 0.0, 0.001)", -0.299796060997, -0.110096268313, 0.0212383262672, "(0.001, 0.0, 0.0, 0.0, 0.001, 0.0, 0.0, 0.0, 0.001)"
1636558245374959736, 3718, 1636512861, 562131881, base_link, 0.0030305379006, -0.0139555183318, -0.697428986945, 0.716511596219, "(0.001367942488112242, 0.0, 0.0, 0.0, 0.0013682153110514822, 0.0, 0.0, 0.0, 0.0014524912931444117)", -0.00193205577905, -0.00272731152688, -0.000543856185531, "(0.001, 0.0, 0.0, 0.0, 0.001, 0.0, 0.0, 0.0, 0.001)", 0.228880070857, -0.130854356675, -0.0293837798513, "(0.001, 0.0, 0.0, 0.0, 0.001, 0.0, 0.0, 0.0, 0.001)"
1636558245374967273, 3719, 1636512861, 581958055, base_link, 0.00302718246424, -0.0139437895919, -0.69742911113, 0.716511717871, "(0.001367942488112242, 0.0, 0.0, 0.0, 0.0013682153110514822, 0.0, 0.0, 0.0, 0.0014524912931444117)", -0.00144174183657, 0.000608454686432, -9.75365029103e-05, "(0.001, 0.0, 0.0, 0.0, 0.001, 0.0, 0.0, 0.0, 0.001)", -0.256989332276, -0.046689986328, 0.0267387993132, "(0.001, 0.0, 0.0, 0.0, 0.001, 0.0, 0.0, 0.0, 0.001)"
1636558245375825018, 3720, 1636512861, 601301908, base_link, 0.00301094565258, -0.0139673660822, -0.697429349396, 0.716511095164, "(0.001367942488112242, 0.0, 0.0, 0.0, 0.0013682153110514822, 0.0, 0.0, 0.0, 0.0014524912931444117)", -0.000610538724048, -0.00411495564407, -0.000158558065231, "(0.001, 0.0, 0.0, 0.0, 0.001, 0.0, 0.0, 0.0, 0.001)", 0.18876962015, -0.121599318387, -0.108320877285, "(0.001, 0.0, 0.0, 0.0, 0.001, 0.0, 0.0, 0.0, 0.001)"
1636558245537307942, 3721, 1636512861, 622152090, base_link, 0.00301317313631, -0.0139500775395, -0.697425659062, 0.716515014641, "(0.001367942488112242, 0.0, 0.0, 0.0, 0.0013682153110514822, 0.0, 0.0, 0.0, 0.0014524912931444117)", -0.000921951395779, 0.000496995325026, 0.000617590767057, "(0.001, 0.0, 0.0, 0.0, 0.001, 0.0, 0.0, 0.0, 0.001)", -0.13668905685, -0.045367944466, 0.0296425997039, "(0.001, 0.0, 0.0, 0.0, 0.001, 0.0, 0.0, 0.0, 0.001)"
1636558245537354806, 3722, 1636512861, 641072034, base_link, 0.00300798813773, -0.0139754045595, -0.697424028959, 0.71651612955, "(0.001367942488112242, 0.0, 0.0, 0.0, 0.0013682153110514822, 0.0, 0.0, 0.0, 0.0014524912931444117)", 0.00106243299153, -0.00293457399748, 0.00031296600998, "(0.001, 0.0, 0.0, 0.0, 0.001, 0.0, 0.0, 0.0, 0.001)", 0.113401086238, -0.0320236106031, -0.030806592761, "(0.001, 0.0, 0.0, 0.0, 0.001, 0.0, 0.0, 0.0, 0.001)"
1636558245537364151, 3723, 1636512861, 661571025, base_link, 0.00300278026531, -0.0139630225332, -0.697418808262, 0.716521474343, "(0.001367942488112242, 0.0, 0.0, 0.0, 0.0013682153110514822, 0.0, 0.0, 0.0, 0.0014524912931444117)", -0.000733978201349, -0.000267358448799, 0.00108489868964, "(0.001, 0.0, 0.0, 0.0, 0.001, 0.0, 0.0, 0.0, 0.001)", -0.12427479565, -0.0524952426162, 0.00163844931389, "(0.001, 0.0, 0.0, 0.0, 0.001, 0.0, 0.0, 0.0, 0.001)"
1636558245537409031, 3724, 1636512861, 681704998, base_link, 0.00300703221875, -0.0139630893593, -0.697415951765, 0.71652423554, "(0.001367942488112242, 0.0, 0.0, 0.0, 0.0013682153110514822, 0.0, 0.0, 0.0, 0.0014524912931444117)", 0.000241650950622, -6.67486381273e-06, 0.00105799733418, "(0.001, 0.0, 0.0, 0.0, 0.001, 0.0, 0.0, 0.0, 0.001)", 0.246842215124, -0.0511011285126, -0.0635646210939, "(0.001, 0.0, 0.0, 0.0, 0.001, 0.0, 0.0, 0.0, 0.001)"
1636558245758888226, 3725, 1636512861, 703299045, base_link, 0.00300805533822, -0.0139585069798, -0.697416809792, 0.716523485384, "(0.001367942488112242, 0.0, 0.0, 0.0, 0.0013682153110514822, 0.0, 0.0, 0.0, 0.0014524912931444117)", -0.000408756835123, 0.000747811362387, 0.000444851351751, "(0.001, 0.0, 0.0, 0.0, 0.001, 0.0, 0.0, 0.0, 0.001)", -0.287400255672, -0.0971485604577, -0.0422725336473, "(0.001, 0.0, 0.0, 0.0, 0.001, 0.0, 0.0, 0.0, 0.001)"
1636558245993232834, 3726, 1636512861, 721194028, base_link, 0.00301350971281, -0.0139764141629, -0.697416301684, 0.716523607952, "(0.001367942488112242, 0.0, 0.0, 0.0, 0.0013682153110514822, 0.0, 0.0, 0.0, 0.0014524912931444117)", 0.00190780797023, -0.00190249909527, -0.000279691486999, "(0.001, 0.0, 0.0, 0.0, 0.001, 0.0, 0.0, 0.0, 0.001)", 0.320332598689, 0.0788329901087, -0.0855030881899, "(0.001, 0.0, 0.0, 0.0, 0.001, 0.0, 0.0, 0.0, 0.001)"
1636558245993251474, 3727, 1636512861, 743199110, base_link, 0.00302463345935, -0.0139679356864, -0.697417395845, 0.716522661427, "(0.001367942488112242, 0.0, 0.0, 0.0, 0.0013682153110514822, 0.0, 0.0, 0.0, 0.0014524912931444117)", 0.000985208747836, 0.00162297049126, -3.99200546677e-05, "(0.001, 0.0, 0.0, 0.0, 0.001, 0.0, 0.0, 0.0, 0.001)", -0.277126701597, 0.0523458567471, -0.0276690024537, "(0.001, 0.0, 0.0, 0.0, 0.001, 0.0, 0.0, 0.0, 0.001)"
1636558245993258333, 3728, 1636512861, 760885953, base_link, 0.00302261808854, -0.0140041010423, -0.697416703556, 0.716522637839, "(0.001367942488112242, 0.0, 0.0, 0.0, 0.0013682153110514822, 0.0, 0.0, 0.0, 0.0014524912931444117)", 0.00355275089229, -0.00293198672336, -8.21284739971e-05, "(0.001, 0.0, 0.0, 0.0, 0.001, 0.0, 0.0, 0.0, 0.001)", 0.193431610577, 0.081838515457, -0.0914513169718, "(0.001, 0.0, 0.0, 0.0, 0.001, 0.0, 0.0, 0.0, 0.001)"
1636558245993263502, 3729, 1636512861, 781662940, base_link, 0.00304140578055, -0.0139985415101, -0.697416478177, 0.716522886343, "(0.001367942488112242, 0.0, 0.0, 0.0, 0.0013682153110514822, 0.0, 0.0, 0.0, 0.0014524912931444117)", 0.00212211907395, 0.000648531269388, 0.000203922501042, "(0.001, 0.0, 0.0, 0.0, 0.001, 0.0, 0.0, 0.0, 0.001)", -0.145273379032, 0.0614407599465, -0.0232664446675, "(0.001, 0.0, 0.0, 0.0, 0.001, 0.0, 0.0, 0.0, 0.001)"
1636558245993279732, 3730, 1636512861, 802931070, base_link, 0.00304692323134, -0.0140309000794, -0.697420011414, 0.716518790948, "(0.001367942488112242, 0.0, 0.0, 0.0, 0.0013682153110514822, 0.0, 0.0, 0.0, 0.0014524912931444117)", 0.0048899603719, -0.00210378836208, -0.00082600558456, "(0.001, 0.0, 0.0, 0.0, 0.001, 0.0, 0.0, 0.0, 0.001)", 0.0879531867327, 0.188541285626, -0.0819937819303, "(0.001, 0.0, 0.0, 0.0, 0.001, 0.0, 0.0, 0.0, 0.001)"
1636558245993293276, 3731, 1636512861, 821742057, base_link, 0.00306283508918, -0.0140359424788, -0.697422709474, 0.716515998195, "(0.001367942488112242, 0.0, 0.0, 0.0, 0.0013682153110514822, 0.0, 0.0, 0.0, 0.0014524912931444117)", 0.00263818906735, 0.000262511445231, -0.000549459010981, "(0.001, 0.0, 0.0, 0.0, 0.001, 0.0, 0.0, 0.0, 0.001)", -0.199241558104, 0.241507443593, 0.0353373920313, "(0.001, 0.0, 0.0, 0.0, 0.001, 0.0, 0.0, 0.0, 0.001)"
1636558245993304837, 3732, 1636512861, 840969085, base_link, 0.0030688608591, -0.0140507982429, -0.697426971052, 0.716511533202, "(0.001367942488112242, 0.0, 0.0, 0.0, 0.0013682153110514822, 0.0, 0.0, 0.0, 0.0014524912931444117)", 0.003595111715, -0.00139869202259, -0.00145471180713, "(0.001, 0.0, 0.0, 0.0, 0.001, 0.0, 0.0, 0.0, 0.001)", 0.182939487511, 0.257714629682, -0.080669542704, "(0.001, 0.0, 0.0, 0.0, 0.001, 0.0, 0.0, 0.0, 0.001)"
1636558245993477764, 3733, 1636512861, 862008094, base_link, 0.00308476282086, -0.0140613907362, -0.697429567422, 0.716508729894, "(0.001367942488112242, 0.0, 0.0, 0.0, 0.0013682153110514822, 0.0, 0.0, 0.0, 0.0014524912931444117)", 0.00294384510947, 0.000573418576198, -0.000609076491239, "(0.001, 0.0, 0.0, 0.0, 0.001, 0.0, 0.0, 0.0, 0.001)", -0.290032147139, 0.156646170233, 0.00581626145659, "(0.001, 0.0, 0.0, 0.0, 0.001, 0.0, 0.0, 0.0, 0.001)"
1636558245995098040, 3734, 1636512861, 881022930, base_link, 0.0031048405215, -0.0140949409174, -0.697432869498, 0.716504769803, "(0.001367942488112242, 0.0, 0.0, 0.0, 0.0013682153110514822, 0.0, 0.0, 0.0, 0.0014524912931444117)", 0.00674921389858, -0.00221733295363, -0.00134541239561, "(0.001, 0.0, 0.0, 0.0, 0.001, 0.0, 0.0, 0.0, 0.001)", 0.22343044076, 0.351299555133, -0.205127176395, "(0.001, 0.0, 0.0, 0.0, 0.001, 0.0, 0.0, 0.0, 0.001)"
1636558245995110866, 3735, 1636512861, 901563882, base_link, 0.00313452934105, -0.0141029168047, -0.697429165351, 0.716508089125, "(0.001367942488112242, 0.0, 0.0, 0.0, 0.0013682153110514822, 0.0, 0.0, 0.0, 0.0014524912931444117)", 0.00503893117275, 0.00168468221662, 0.00014582573242, "(0.001, 0.0, 0.0, 0.0, 0.001, 0.0, 0.0, 0.0, 0.001)", -0.24032762728, 0.329989962317, 0.00336425463058, "(0.001, 0.0, 0.0, 0.0, 0.001, 0.0, 0.0, 0.0, 0.001)"
1636558246402670704, 3736, 1636512861, 922144889, base_link, 0.00315734451716, -0.0141676169707, -0.697429188798, 0.716506689723, "(0.001367942488112242, 0.0, 0.0, 0.0, 0.0013682153110514822, 0.0, 0.0, 0.0, 0.0014524912931444117)", 0.0109322699513, -0.00410200314195, 3.42807988048e-05, "(0.001, 0.0, 0.0, 0.0, 0.001, 0.0, 0.0, 0.0, 0.001)", 0.123040461884, 0.456379531948, -0.283009803873, "(0.001, 0.0, 0.0, 0.0, 0.001, 0.0, 0.0, 0.0, 0.001)"
1636558246402710233, 3737, 1636512861, 941423892, base_link, 0.00315734451716, -0.0141676169707, -0.697429188798, 0.716506689723, "(0.001367942488112242, 0.0, 0.0, 0.0, 0.0013682153110514822, 0.0, 0.0, 0.0, 0.0014524912931444117)", 0.00826188826404, 7.3958898573e-05, -0.000154854296098, "(0.001, 0.0, 0.0, 0.0, 0.001, 0.0, 0.0, 0.0, 0.001)", -0.174187883803, 0.406937885813, 0.0335058097284, "(0.001, 0.0, 0.0, 0.0, 0.001, 0.0, 0.0, 0.0, 0.001)"
1636558246402757275, 3738, 1636512861, 961008071, base_link, 0.00321962568244, -0.0142756075128, -0.697423486724, 0.716509819337, "(0.001367942488112242, 0.0, 0.0, 0.0, 0.0013682153110514822, 0.0, 0.0, 0.0, 0.0014524912931444117)", 0.0146910340178, -0.00577677422325, 0.000634016734653, "(0.001, 0.0, 0.0, 0.0, 0.001, 0.0, 0.0, 0.0, 0.001)", 0.116220501832, 0.534822202346, -0.200802891616, "(0.001, 0.0, 0.0, 0.0, 0.001, 0.0, 0.0, 0.0, 0.001)"
1636558246402789683, 3739, 1636512861, 982307910, base_link, 0.00325725202444, -0.0143266559527, -0.697420952212, 0.716511097369, "(0.001367942488112242, 0.0, 0.0, 0.0, 0.0013682153110514822, 0.0, 0.0, 0.0, 0.0014524912931444117)", 0.0104540397346, -0.0024211999369, 0.00078160427523, "(0.001, 0.0, 0.0, 0.0, 0.001, 0.0, 0.0, 0.0, 0.001)", -0.170969364524, 0.494148679523, 0.0325074478032, "(0.001, 0.0, 0.0, 0.0, 0.001, 0.0, 0.0, 0.0, 0.001)"
1636558246402807007, 3740, 1636512862, 924110, base_link, 0.0032932545949, -0.0143942104728, -0.697417020985, 0.716513405332, "(0.001367942488112242, 0.0, 0.0, 0.0, 0.0013682153110514822, 0.0, 0.0, 0.0, 0.0014524912931444117)", 0.0156756811486, -0.00587593995501, 0.00074956382231, "(0.001, 0.0, 0.0, 0.0, 0.001, 0.0, 0.0, 0.0, 0.001)", 0.226552732626, 0.766660280689, -0.267350750408, "(0.001, 0.0, 0.0, 0.0, 0.001, 0.0, 0.0, 0.0, 0.001)"
1636558246402843893, 3741, 1636512862, 22207021, base_link, 0.00334030219372, -0.0144497818455, -0.697415917091, 0.716513143476, "(0.001367942488112242, 0.0, 0.0, 0.0, 0.0013682153110514822, 0.0, 0.0, 0.0, 0.0014524912931444117)", 0.0114741749034, -0.0011970320316, 0.000415518414219, "(0.001, 0.0, 0.0, 0.0, 0.001, 0.0, 0.0, 0.0, 0.001)", -0.226393891992, 0.520641755667, 0.0580548759391, "(0.001, 0.0, 0.0, 0.0, 0.001, 0.0, 0.0, 0.0, 0.001)"
1636558246509226189, 3742, 1636512862, 42646884, base_link, 0.00338392538333, -0.0145392366679, -0.697410602262, 0.716516302326, "(0.001367942488112242, 0.0, 0.0, 0.0, 0.0013682153110514822, 0.0, 0.0, 0.0, 0.0014524912931444117)", 0.0207514530335, -0.00638999792945, 0.000515215061605, "(0.001, 0.0, 0.0, 0.0, 0.001, 0.0, 0.0, 0.0, 0.001)", 0.177017292542, 0.979124096543, -0.153517755234, "(0.001, 0.0, 0.0, 0.0, 0.001, 0.0, 0.0, 0.0, 0.001)"
1636558246509232261, 3743, 1636512862, 61814069, base_link, 0.00343734065962, -0.0145893649424, -0.69741124205, 0.716514406403, "(0.001367942488112242, 0.0, 0.0, 0.0, 0.0013682153110514822, 0.0, 0.0, 0.0, 0.0014524912931444117)", 0.0124791209801, -0.00131890943106, 0.000284429892223, "(0.001, 0.0, 0.0, 0.0, 0.001, 0.0, 0.0, 0.0, 0.001)", -0.0824197180883, 0.667274795117, 0.0951814773572, "(0.001, 0.0, 0.0, 0.0, 0.001, 0.0, 0.0, 0.0, 0.001)"
1636558246509238406, 3744, 1636512862, 81126928, base_link, 0.0034626725892, -0.0146704239916, -0.697410176604, 0.716513666393, "(0.001367942488112242, 0.0, 0.0, 0.0, 0.0013682153110514822, 0.0, 0.0, 0.0, 0.0014524912931444117)", 0.0187152630471, -0.00638002337615, -0.000265575284095, "(0.001, 0.0, 0.0, 0.0, 0.001, 0.0, 0.0, 0.0, 0.001)", -0.0139753074635, 0.924220757834, -0.0747679795354, "(0.001, 0.0, 0.0, 0.0, 0.001, 0.0, 0.0, 0.0, 0.001)"
1636558246509256614, 3745, 1636512862, 102659940, base_link, 0.00351931586722, -0.014713843154, -0.697414283867, 0.716508502318, "(0.001367942488112242, 0.0, 0.0, 0.0, 0.0013682153110514822, 0.0, 0.0, 0.0, 0.0014524912931444117)", 0.0113490183893, -0.00102973427959, -0.000476169854392, "(0.001, 0.0, 0.0, 0.0, 0.001, 0.0, 0.0, 0.0, 0.001)", 0.146209913806, 0.686068727894, 0.142126245449, "(0.001, 0.0, 0.0, 0.0, 0.001, 0.0, 0.0, 0.0, 0.001)"
1636558246510802081, 3746, 1636512862, 121016979, base_link, 0.00354755890606, -0.0147895094558, -0.69741628222, 0.716504860089, "(0.001367942488112242, 0.0, 0.0, 0.0, 0.0013682153110514822, 0.0, 0.0, 0.0, 0.0014524912931444117)", 0.0180106395485, -0.00464231754743, -0.00129549120949, "(0.001, 0.0, 0.0, 0.0, 0.001, 0.0, 0.0, 0.0, 0.001)", -0.0993666004562, 1.25234727087, 0.00286830431344, "(0.001, 0.0, 0.0, 0.0, 0.001, 0.0, 0.0, 0.0, 0.001)"
1636558246510811488, 3747, 1636512862, 141648054, base_link, 0.00358861876482, -0.0148257811585, -0.69742033156, 0.716499964518, "(0.001367942488112242, 0.0, 0.0, 0.0, 0.0013682153110514822, 0.0, 0.0, 0.0, 0.0014524912931444117)", 0.00970955211522, -0.00157200796623, -0.000980901231038, "(0.001, 0.0, 0.0, 0.0, 0.001, 0.0, 0.0, 0.0, 0.001)", 0.178814868901, 0.575209096591, 0.122790660289, "(0.001, 0.0, 0.0, 0.0, 0.001, 0.0, 0.0, 0.0, 0.001)"
1636558246510818346, 3748, 1636512862, 162210941, base_link, 0.00361499367748, -0.0148860552965, -0.697421376196, 0.716497565385, "(0.001367942488112242, 0.0, 0.0, 0.0, 0.0013682153110514822, 0.0, 0.0, 0.0, 0.0014524912931444117)", 0.0151023864617, -0.00389102105388, -0.00122355817085, "(0.001, 0.0, 0.0, 0.0, 0.001, 0.0, 0.0, 0.0, 0.001)", -0.0805286150272, 1.32787781958, 0.0536910263615, "(0.001, 0.0, 0.0, 0.0, 0.001, 0.0, 0.0, 0.0, 0.001)"
1636558246510861816, 3749, 1636512862, 182449102, base_link, 0.00365639399697, -0.0149092834303, -0.697420983125, 0.716497254948, "(0.001367942488112242, 0.0, 0.0, 0.0, 0.0013682153110514822, 0.0, 0.0, 0.0, 0.0014524912931444117)", 0.007744881855, -0.000604436007164, -0.000113663333772, "(0.001, 0.0, 0.0, 0.0, 0.001, 0.0, 0.0, 0.0, 0.001)", 0.285008891713, 0.614951156516, 0.145381821832, "(0.001, 0.0, 0.0, 0.0, 0.001, 0.0, 0.0, 0.0, 0.001)"
1636558246510882528, 3750, 1636512862, 201013088, base_link, 0.00365639399697, -0.0149092834303, -0.697420983125, 0.716497254948, "(0.001367942488112242, 0.0, 0.0, 0.0, 0.0013682153110514822, 0.0, 0.0, 0.0, 0.0014524912931444117)", 0.0113277235212, -0.00165525544427, -0.000282207100507, "(0.001, 0.0, 0.0, 0.0, 0.001, 0.0, 0.0, 0.0, 0.001)", -0.22673709859, 1.25865928169, 0.111577885122, "(0.001, 0.0, 0.0, 0.0, 0.001, 0.0, 0.0, 0.0, 0.001)"
1636558246532949979, 3751, 1636512862, 222398996, base_link, 0.00369995952919, -0.0149603985053, -0.697419854539, 0.716497064384, "(0.001367942488112242, 0.0, 0.0, 0.0, 0.0013682153110514822, 0.0, 0.0, 0.0, 0.0014524912931444117)", 0.00785393345906, 6.70561439959e-05, 0.000158797117216, "(0.001, 0.0, 0.0, 0.0, 0.001, 0.0, 0.0, 0.0, 0.001)", 0.316721308654, 1.04636085701, 0.191003684929, "(0.001, 0.0, 0.0, 0.0, 0.001, 0.0, 0.0, 0.0, 0.001)"
1636558246532960188, 3752, 1636512862, 241183996, base_link, 0.00372213192217, -0.0149946600512, -0.697417351272, 0.716498669956, "(0.001367942488112242, 0.0, 0.0, 0.0, 0.0013682153110514822, 0.0, 0.0, 0.0, 0.0014524912931444117)", 0.00540120016435, -0.000357444283266, 5.34709422377e-05, "(0.001, 0.0, 0.0, 0.0, 0.001, 0.0, 0.0, 0.0, 0.001)", -0.251563661891, 0.829875818117, -0.0469473654754, "(0.001, 0.0, 0.0, 0.0, 0.001, 0.0, 0.0, 0.0, 0.001)"
1636558246532966391, 3753, 1636512862, 261604070, base_link, 0.00373588632387, -0.0150088702327, -0.69741051653, 0.716504953507, "(0.001367942488112242, 0.0, 0.0, 0.0, 0.0013682153110514822, 0.0, 0.0, 0.0, 0.0014524912931444117)", 0.00495360046208, -0.000928640382242, 0.00110667598433, "(0.001, 0.0, 0.0, 0.0, 0.001, 0.0, 0.0, 0.0, 0.001)", 0.260222438527, 0.811027261105, 0.0847577636612, "(0.001, 0.0, 0.0, 0.0, 0.001, 0.0, 0.0, 0.0, 0.001)"
1636558246532976938, 3754, 1636512862, 282906055, base_link, 0.00375346673877, -0.0150212420087, -0.697404722125, 0.716510242309, "(0.001367942488112242, 0.0, 0.0, 0.0, 0.0013682153110514822, 0.0, 0.0, 0.0, 0.0014524912931444117)", 0.00508889851364, 0.000781786010314, 0.0015126647958, "(0.001, 0.0, 0.0, 0.0, 0.001, 0.0, 0.0, 0.0, 0.001)", -0.17429610928, 1.10963527408, 0.0496605910145, "(0.001, 0.0, 0.0, 0.0, 0.001, 0.0, 0.0, 0.0, 0.001)"
1636558246556780722, 3755, 1636512862, 304999113, base_link, 0.00375346673877, -0.0150212420087, -0.697404722125, 0.716510242309, "(0.001367942488112242, 0.0, 0.0, 0.0, 0.0013682153110514822, 0.0, 0.0, 0.0, 0.0014524912931444117)", 0.00403249840293, -0.00224193202729, 0.00162165707042, "(0.001, 0.0, 0.0, 0.0, 0.001, 0.0, 0.0, 0.0, 0.001)", 0.162497396482, 0.834349973748, 0.0296780697147, "(0.001, 0.0, 0.0, 0.0, 0.001, 0.0, 0.0, 0.0, 0.001)"
1636558246558029922, 3756, 1636512862, 322861909, base_link, 0.00376971813029, -0.0150583710592, -0.697399402139, 0.716514555737, "(0.0014893602571720704, 0.0, 0.0, 0.0, 0.001489787276543808, 0.0, 0.0, 0.0, 0.0015739431319262837)", 0.00393442224766, -0.000812747062412, 0.000697139599672, "(0.001, 0.0, 0.0, 0.0, 0.001, 0.0, 0.0, 0.0, 0.001)", -0.20852435563, 1.10710552652, 0.0223006378879, "(0.001, 0.0, 0.0, 0.0, 0.001, 0.0, 0.0, 0.0, 0.001)"
1636558246558072858, 3757, 1636512862, 342345952, base_link, 0.00378024226058, -0.0150797739815, -0.697395159198, 0.716518179889, "(0.001293128298680779, 0.0, 0.0, 0.0, 0.001293605246609708, 0.0, 0.0, 0.0, 0.0015739425407532842)", 0.00568669563152, -0.0026044550792, 0.000783417379422, "(0.001, 0.0, 0.0, 0.0, 0.001, 0.0, 0.0, 0.0, 0.001)", 0.235450562399, 1.19360469651, 0.0305566752109, "(0.001, 0.0, 0.0, 0.0, 0.001, 0.0, 0.0, 0.0, 0.001)"
1636558246558087492, 3758, 1636512862, 360964059, base_link, 0.00379184651278, -0.0150984240746, -0.697398049323, 0.716514912818, "(0.001293128298680779, 0.0, 0.0, 0.0, 0.001293605246609708, 0.0, 0.0, 0.0, 0.0015739425407532842)", 0.00318305630064, -0.000540204728249, -0.000288060177504, "(0.001, 0.0, 0.0, 0.0, 0.001, 0.0, 0.0, 0.0, 0.001)", -0.268654338499, 0.626761911239, -0.0312132481438, "(0.001, 0.0, 0.0, 0.0, 0.001, 0.0, 0.0, 0.0, 0.001)"
1636558246558114652, 3759, 1636512862, 381755113, base_link, 0.00378692233738, -0.0151305305282, -0.697391276445, 0.716520853712, "(0.001293128298680779, 0.0, 0.0, 0.0, 0.001293605246609708, 0.0, 0.0, 0.0, 0.0015739425407532842)", 0.00348670901541, -0.00302879838852, 0.000700226274748, "(0.001, 0.0, 0.0, 0.0, 0.001, 0.0, 0.0, 0.0, 0.001)", 0.133438562009, 0.737981535137, -0.0748614076762, "(0.001, 0.0, 0.0, 0.0, 0.001, 0.0, 0.0, 0.0, 0.001)"
1636558246558170700, 3760, 1636512862, 401390075, base_link, 0.00379733364837, -0.0151215768629, -0.697399547263, 0.71651293753, "(0.001293128298680779, 0.0, 0.0, 0.0, 0.001293605246609708, 0.0, 0.0, 0.0, 0.0015739425407532842)", 0.00266523525787, -0.000883648926919, -0.000792497971045, "(0.001, 0.0, 0.0, 0.0, 0.001, 0.0, 0.0, 0.0, 0.001)", -0.0701120716124, 0.942418102271, 0.212592591777, "(0.001, 0.0, 0.0, 0.0, 0.001, 0.0, 0.0, 0.0, 0.001)"
1636558246580803077, 3761, 1636512862, 421869993, base_link, 0.00377831403806, -0.0151477889988, -0.697396791302, 0.716515166841, "(0.001293128298680779, 0.0, 0.0, 0.0, 0.001293605246609708, 0.0, 0.0, 0.0, 0.0015739425407532842)", 0.000765194579678, -0.00303403516303, -0.000170603224804, "(0.001, 0.0, 0.0, 0.0, 0.001, 0.0, 0.0, 0.0, 0.001)", 0.0374432503342, 0.59962878358, -0.0878629713189, "(0.001, 0.0, 0.0, 0.0, 0.001, 0.0, 0.0, 0.0, 0.001)"
1636558246580818114, 3762, 1636512862, 443105936, base_link, 0.00377097263883, -0.0151346578275, -0.697403672996, 0.716508784866, "(0.001293128298680779, 0.0, 0.0, 0.0, 0.001293605246609708, 0.0, 0.0, 0.0, 0.0015739425407532842)", -0.000289018053699, -0.0021036160821, -0.000626668120498, "(0.001, 0.0, 0.0, 0.0, 0.001, 0.0, 0.0, 0.0, 0.001)", 0.0180460254322, 0.949201404729, 0.27664143921, "(0.001, 0.0, 0.0, 0.0, 0.001, 0.0, 0.0, 0.0, 0.001)"
1636558246580857322, 3763, 1636512862, 462248086, base_link, 0.00375857666929, -0.0151456915245, -0.697402711251, 0.71650955295, "(0.001293128298680779, 0.0, 0.0, 0.0, 0.001293605246609708, 0.0, 0.0, 0.0, 0.0015739425407532842)", -0.00131924419523, -0.00197524818746, -0.000434888617873, "(0.001, 0.0, 0.0, 0.0, 0.001, 0.0, 0.0, 0.0, 0.001)", 0.0475188659489, 0.498376487404, -0.22224637935, "(0.001, 0.0, 0.0, 0.0, 0.001, 0.0, 0.0, 0.0, 0.001)"
1636558246580888211, 3764, 1636512862, 480982065, base_link, 0.00375197931164, -0.0151333195516, -0.697403114292, 0.716509456649, "(0.001293128298680779, 0.0, 0.0, 0.0, 0.001293605246609708, 0.0, 0.0, 0.0, 0.0015739425407532842)", -0.00177432592683, -0.000908526239189, -5.975696239e-05, "(0.001, 0.0, 0.0, 0.0, 0.001, 0.0, 0.0, 0.0, 0.001)", -0.00129407818686, 0.760404192512, 0.121861942275, "(0.001, 0.0, 0.0, 0.0, 0.001, 0.0, 0.0, 0.0, 0.001)"
1636558246605265555, 3765, 1636512862, 503585100, base_link, 0.00375197931164, -0.0151333195516, -0.697403114292, 0.716509456649, "(0.001293128298680779, 0.0, 0.0, 0.0, 0.001293605246609708, 0.0, 0.0, 0.0, 0.0015739425407532842)", -0.00105585635408, -0.00144222232838, 0.000147230351762, "(0.001, 0.0, 0.0, 0.0, 0.001, 0.0, 0.0, 0.0, 0.001)", 0.0808914132405, 0.538331207544, -0.264880888755, "(0.001, 0.0, 0.0, 0.0, 0.001, 0.0, 0.0, 0.0, 0.001)"
1636558246605282855, 3766, 1636512862, 520997047, base_link, 0.00375570426128, -0.0151518133587, -0.69740756347, 0.716504715722, "(0.001293128298680779, 0.0, 0.0, 0.0, 0.001293605246609708, 0.0, 0.0, 0.0, 0.0015739425407532842)", 0.00146398023783, -0.000780850423983, -0.000998864447046, "(0.001, 0.0, 0.0, 0.0, 0.001, 0.0, 0.0, 0.0, 0.001)", -0.059589542949, 0.746562565104, 0.00871229563416, "(0.001, 0.0, 0.0, 0.0, 0.001, 0.0, 0.0, 0.0, 0.001)"
1636558246605293675, 3767, 1636512862, 541860103, base_link, 0.00375734121437, -0.0151820758263, -0.69740557405, 0.716506002937, "(0.001293128298680779, 0.0, 0.0, 0.0, 0.001293605246609708, 0.0, 0.0, 0.0, 0.0015739425407532842)", 0.00280099773378, -0.0025057458852, -7.87346744669e-05, "(0.001, 0.0, 0.0, 0.0, 0.001, 0.0, 0.0, 0.0, 0.001)", 0.0748669283715, 0.602968853656, -0.355178137628, "(0.001, 0.0, 0.0, 0.0, 0.001, 0.0, 0.0, 0.0, 0.001)"
1636558246605329193, 3768, 1636512862, 561640977, base_link, 0.00380399984789, -0.0151990298982, -0.697405699888, 0.716505274816, "(0.001293128298680779, 0.0, 0.0, 0.0, 0.001293605246609708, 0.0, 0.0, 0.0, 0.0015739425407532842)", 0.00825016179107, 0.000690176304808, -0.000322536050687, "(0.001, 0.0, 0.0, 0.0, 0.001, 0.0, 0.0, 0.0, 0.001)", 0.0281140076711, 0.821286999988, -0.0686079302956, "(0.001, 0.0, 0.0, 0.0, 0.001, 0.0, 0.0, 0.0, 0.001)"
1636558246605362876, 3769, 1636512862, 581789016, base_link, 0.00383742929185, -0.0152534203351, -0.697397113848, 0.716512297802, "(0.001293128298680779, 0.0, 0.0, 0.0, 0.001293605246609708, 0.0, 0.0, 0.0, 0.0015739425407532842)", 0.00815355549541, -0.00122991792496, 0.00102994888909, "(0.001, 0.0, 0.0, 0.0, 0.001, 0.0, 0.0, 0.0, 0.001)", 0.116802363844, 0.696182873817, -0.391563726175, "(0.001, 0.0, 0.0, 0.0, 0.001, 0.0, 0.0, 0.0, 0.001)"
1636558246605380749, 3770, 1636512862, 601531028, base_link, 0.00389094599791, -0.0152916275249, -0.697396713824, 0.716511584145, "(0.001293128298680779, 0.0, 0.0, 0.0, 0.001293605246609708, 0.0, 0.0, 0.0, 0.0015739425407532842)", 0.0148436189958, 0.000445709557763, 0.000673425768167, "(0.001, 0.0, 0.0, 0.0, 0.001, 0.0, 0.0, 0.0, 0.001)", -0.0344975272201, 1.07426184825, 0.0892311074949, "(0.001, 0.0, 0.0, 0.0, 0.001, 0.0, 0.0, 0.0, 0.001)"
1636558246627204570, 3771, 1636512862, 622823953, base_link, 0.00394213428546, -0.0153574261238, -0.697387967329, 0.716518410137, "(0.001293128298680779, 0.0, 0.0, 0.0, 0.001293605246609708, 0.0, 0.0, 0.0, 0.0015739425407532842)", 0.0118486174819, -0.000987957588021, 0.00100377842839, "(0.001, 0.0, 0.0, 0.0, 0.001, 0.0, 0.0, 0.0, 0.001)", 0.159494320981, 0.830650338389, -0.29509114341, "(0.001, 0.0, 0.0, 0.0, 0.001, 0.0, 0.0, 0.0, 0.001)"
1636558246627210748, 3772, 1636512862, 641308069, base_link, 0.00397948150682, -0.0153980026678, -0.69738306434, 0.716522104901, "(0.001293128298680779, 0.0, 0.0, 0.0, 0.001293605246609708, 0.0, 0.0, 0.0, 0.0015739425407532842)", 0.0157914527123, -0.00124305503433, 0.00194660202628, "(0.001, 0.0, 0.0, 0.0, 0.001, 0.0, 0.0, 0.0, 0.001)", -0.229972606933, 1.18422103713, 0.164397881867, "(0.001, 0.0, 0.0, 0.0, 0.001, 0.0, 0.0, 0.0, 0.001)"
1636558246627218753, 3773, 1636512862, 661619901, base_link, 0.0040224683326, -0.015452697026, -0.697372796446, 0.716530680907, "(0.001293128298680779, 0.0, 0.0, 0.0, 0.001293605246609708, 0.0, 0.0, 0.0, 0.0015739425407532842)", 0.010841265933, -0.00150879495289, 0.00148742415463, "(0.001, 0.0, 0.0, 0.0, 0.001, 0.0, 0.0, 0.0, 0.001)", 0.334758410366, 0.835739696973, -0.196923099862, "(0.001, 0.0, 0.0, 0.0, 0.001, 0.0, 0.0, 0.0, 0.001)"
1636558246627380573, 3774, 1636512862, 681372880, base_link, 0.00405147507718, -0.0154949966112, -0.697368101324, 0.716534173564, "(0.001293128298680779, 0.0, 0.0, 0.0, 0.001293605246609708, 0.0, 0.0, 0.0, 0.0015739425407532842)", 0.0144916655769, -0.00202472478906, 0.00219835583784, "(0.001, 0.0, 0.0, 0.0, 0.001, 0.0, 0.0, 0.0, 0.001)", -0.307858848412, 1.23166735821, 0.220099674187, "(0.001, 0.0, 0.0, 0.0, 0.001, 0.0, 0.0, 0.0, 0.001)"
1636558246656866057, 3775, 1636512862, 701379060, base_link, 0.00407031679865, -0.0155444452045, -0.697355574347, 0.71654518746, "(0.001293128298680779, 0.0, 0.0, 0.0, 0.001293605246609708, 0.0, 0.0, 0.0, 0.0015739425407532842)", 0.00773547994075, -0.00300648170582, 0.00172395331058, "(0.001, 0.0, 0.0, 0.0, 0.001, 0.0, 0.0, 0.0, 0.001)", 0.360606704376, 0.829157228711, -0.0739174292028, "(0.001, 0.0, 0.0, 0.0, 0.001, 0.0, 0.0, 0.0, 0.001)"
1636558246656882509, 3776, 1636512862, 721132040, base_link, 0.00408076158504, -0.0155499957931, -0.697354257934, 0.716546288775, "(0.001293128298680779, 0.0, 0.0, 0.0, 0.001293605246609708, 0.0, 0.0, 0.0, 0.0015739425407532842)", 0.00748023956072, -0.00151030750047, 0.00197618174706, "(0.001, 0.0, 0.0, 0.0, 0.001, 0.0, 0.0, 0.0, 0.001)", -0.304043626886, 1.25907304179, 0.289544523716, "(0.001, 0.0, 0.0, 0.0, 0.001, 0.0, 0.0, 0.0, 0.001)"
1636558246656896168, 3777, 1636512862, 741889953, base_link, 0.00409915188329, -0.015569190064, -0.697345265006, 0.716554518965, "(0.001293128298680779, 0.0, 0.0, 0.0, 0.001293605246609708, 0.0, 0.0, 0.0, 0.0015739425407532842)", 0.00368088797446, -0.000919639413497, 0.00136289051836, "(0.001, 0.0, 0.0, 0.0, 0.001, 0.0, 0.0, 0.0, 0.001)", 0.318137024233, 0.799203244446, -0.0487572566217, "(0.001, 0.0, 0.0, 0.0, 0.001, 0.0, 0.0, 0.0, 0.001)"
1636558246656972877, 3778, 1636512862, 761164903, base_link, 0.00410169983415, -0.0155705799678, -0.697346536361, 0.716553236908, "(0.001293128298680779, 0.0, 0.0, 0.0, 0.001293605246609708, 0.0, 0.0, 0.0, 0.0015739425407532842)", 0.00369468830639, -0.00018059600331, 0.000976271476912, "(0.001, 0.0, 0.0, 0.0, 0.001, 0.0, 0.0, 0.0, 0.001)", -0.310246523919, 1.18610245811, 0.159153676365, "(0.001, 0.0, 0.0, 0.0, 0.001, 0.0, 0.0, 0.0, 0.001)"
1636558246656978366, 3779, 1636512862, 781069993, base_link, 0.00410169983415, -0.0155705799678, -0.697346536361, 0.716553236908, "(0.001293128298680779, 0.0, 0.0, 0.0, 0.001293605246609708, 0.0, 0.0, 0.0, 0.0015739425407532842)", 0.00110525337356, 0.000363040889092, 0.000730223257146, "(0.001, 0.0, 0.0, 0.0, 0.001, 0.0, 0.0, 0.0, 0.001)", 0.336596291009, 0.705649884592, -0.0210443878271, "(0.001, 0.0, 0.0, 0.0, 0.001, 0.0, 0.0, 0.0, 0.001)"
1636558246656999100, 3780, 1636512862, 803339004, base_link, 0.00410880410972, -0.0155556638802, -0.69734902151, 0.716551101631, "(0.001293128298680779, 0.0, 0.0, 0.0, 0.001293605246609708, 0.0, 0.0, 0.0, 0.0015739425407532842)", -0.000498862717286, 0.00200550793517, -0.000661868866279, "(0.001, 0.0, 0.0, 0.0, 0.001, 0.0, 0.0, 0.0, 0.001)", -0.263780332462, 1.06517040184, 0.0909771920765, "(0.001, 0.0, 0.0, 0.0, 0.001, 0.0, 0.0, 0.0, 0.001)"
1636558246676394209, 3781, 1636512862, 821656942, base_link, 0.00411882977775, -0.0155429259805, -0.697347702391, 0.716552604254, "(0.001293128298680779, 0.0, 0.0, 0.0, 0.001293605246609708, 0.0, 0.0, 0.0, 0.0015739425407532842)", -0.00078952598719, 0.00137715767953, -0.000180913025511, "(0.001, 0.0, 0.0, 0.0, 0.001, 0.0, 0.0, 0.0, 0.001)", 0.319011181236, 0.731728739436, 0.0162683708436, "(0.001, 0.0, 0.0, 0.0, 0.001, 0.0, 0.0, 0.0, 0.001)"
1636558246676404504, 3782, 1636512862, 841135978, base_link, 0.00411783638807, -0.0155416064158, -0.697356287855, 0.716544283128, "(0.001293128298680779, 0.0, 0.0, 0.0, 0.001293605246609708, 0.0, 0.0, 0.0, 0.0015739425407532842)", -6.71829650772e-05, 0.00165909106084, -0.00152581096881, "(0.001, 0.0, 0.0, 0.0, 0.001, 0.0, 0.0, 0.0, 0.001)", -0.212905866261, 0.965728063184, -0.145804184204, "(0.001, 0.0, 0.0, 0.0, 0.001, 0.0, 0.0, 0.0, 0.001)"
1636558246676419148, 3783, 1636512862, 861576080, base_link, 0.00413387734185, -0.015551389966, -0.697354625794, 0.716545596046, "(0.001293128298680779, 0.0, 0.0, 0.0, 0.001293605246609708, 0.0, 0.0, 0.0, 0.0015739425407532842)", 0.00167180987741, 0.000143493908811, -0.000349151974688, "(0.001, 0.0, 0.0, 0.0, 0.001, 0.0, 0.0, 0.0, 0.001)", 0.253845890792, 0.739298563904, 0.00452619352648, "(0.001, 0.0, 0.0, 0.0, 0.001, 0.0, 0.0, 0.0, 0.001)"
1636558246701280870, 3784, 1636512862, 881278991, base_link, 0.00414299051414, -0.0155370261128, -0.69735700088, 0.716543543529, "(0.001293128298680779, 0.0, 0.0, 0.0, 0.001293605246609708, 0.0, 0.0, 0.0, 0.0015739425407532842)", 0.000675748842745, 0.00308356612235, -0.000756268108675, "(0.001, 0.0, 0.0, 0.0, 0.001, 0.0, 0.0, 0.0, 0.001)", -0.0598824433184, 0.986336529716, -0.282762153018, "(0.001, 0.0, 0.0, 0.0, 0.001, 0.0, 0.0, 0.0, 0.001)"
1636558246701299418, 3785, 1636512862, 901746034, base_link, 0.00418348249945, -0.0155527468507, -0.697354691751, 0.716545214507, "(0.001293128298680779, 0.0, 0.0, 0.0, 0.001293605246609708, 0.0, 0.0, 0.0, 0.0015739425407532842)", 0.00425772943565, 0.00154310127892, 0.000120310607425, "(0.001, 0.0, 0.0, 0.0, 0.001, 0.0, 0.0, 0.0, 0.001)", 0.273582981115, 0.682880512347, 0.119142084286, "(0.001, 0.0, 0.0, 0.0, 0.001, 0.0, 0.0, 0.0, 0.001)"
1636558246701306272, 3786, 1636512862, 921616077, base_link, 0.00422526804857, -0.0155505481498, -0.697361058242, 0.716538821007, "(0.001293128298680779, 0.0, 0.0, 0.0, 0.001293605246609708, 0.0, 0.0, 0.0, 0.0015739425407532842)", 0.00642502479643, 0.00606213552371, -0.00133619018907, "(0.001, 0.0, 0.0, 0.0, 0.001, 0.0, 0.0, 0.0, 0.001)", 0.077340176159, 1.18400038173, -0.285855416698, "(0.001, 0.0, 0.0, 0.0, 0.001, 0.0, 0.0, 0.0, 0.001)"
1636558246701328175, 3787, 1636512862, 941664934, base_link, 0.00427831076586, -0.0155503765718, -0.697360010389, 0.716539529793, "(0.001293128298680779, 0.0, 0.0, 0.0, 0.001293605246609708, 0.0, 0.0, 0.0, 0.0015739425407532842)", 0.00613302423103, 0.00448236636203, -1.56059870512e-05, "(0.001, 0.0, 0.0, 0.0, 0.001, 0.0, 0.0, 0.0, 0.001)", 0.155968302467, 0.709616771367, 0.187368736014, "(0.001, 0.0, 0.0, 0.0, 0.001, 0.0, 0.0, 0.0, 0.001)"
1636558246701369391, 3788, 1636512862, 960841894, base_link, 0.00431021318018, -0.0155425695521, -0.697362440952, 0.716537142473, "(0.001293128298680779, 0.0, 0.0, 0.0, 0.001293605246609708, 0.0, 0.0, 0.0, 0.0015739425407532842)", 0.00597477591489, 0.00720363000258, -0.000850057354632, "(0.001, 0.0, 0.0, 0.0, 0.001, 0.0, 0.0, 0.0, 0.001)", 0.0258366406265, 1.08505777649, -0.302425365442, "(0.001, 0.0, 0.0, 0.0, 0.001, 0.0, 0.0, 0.0, 0.001)"
1636558246738705922, 3789, 1636512862, 982661008, base_link, 0.00431021318018, -0.0155425695521, -0.697362440952, 0.716537142473, "(0.001293128298680779, 0.0, 0.0, 0.0, 0.001293605246609708, 0.0, 0.0, 0.0, 0.0015739425407532842)", 0.00533300535589, 0.00546505970194, -0.00026408779552, "(0.001, 0.0, 0.0, 0.0, 0.001, 0.0, 0.0, 0.0, 0.001)", 0.105110659317, 0.754131993487, 0.255133611282, "(0.001, 0.0, 0.0, 0.0, 0.001, 0.0, 0.0, 0.0, 0.001)"
1636558246738711927, 3790, 1636512863, 1153945, base_link, 0.00438783182754, -0.0155405453176, -0.697367457217, 0.716531833206, "(0.001293128298680779, 0.0, 0.0, 0.0, 0.001293605246609708, 0.0, 0.0, 0.0, 0.0015739425407532842)", 0.00548780069011, 0.00697233725635, -0.00119768980205, "(0.001, 0.0, 0.0, 0.0, 0.001, 0.0, 0.0, 0.0, 0.001)", -0.08852882022, 1.07854726838, -0.405978475397, "(0.001, 0.0, 0.0, 0.0, 0.001, 0.0, 0.0, 0.0, 0.001)"
1636558246738724553, 3791, 1636512863, 21945953, base_link, 0.00444199893274, -0.0155326575255, -0.697373078018, 0.716526199976, "(0.001293128298680779, 0.0, 0.0, 0.0, 0.001293605246609708, 0.0, 0.0, 0.0, 0.0015739425407532842)", 0.00530247450641, 0.00480930748759, -0.000925622080226, "(0.001, 0.0, 0.0, 0.0, 0.001, 0.0, 0.0, 0.0, 0.001)", 0.0693816511499, 0.809263115527, 0.317333798553, "(0.001, 0.0, 0.0, 0.0, 0.001, 0.0, 0.0, 0.0, 0.001)"
1636558246738821585, 3792, 1636512863, 44002056, base_link, 0.00446581915797, -0.0155312983102, -0.697379504253, 0.716519826858, "(0.001293128298680779, 0.0, 0.0, 0.0, 0.001293605246609708, 0.0, 0.0, 0.0, 0.0015739425407532842)", 0.00454794518601, 0.00650923584474, -0.00232781908333, "(0.001, 0.0, 0.0, 0.0, 0.001, 0.0, 0.0, 0.0, 0.001)", -0.163630801645, 1.18077324292, -0.345874046527, "(0.001, 0.0, 0.0, 0.0, 0.001, 0.0, 0.0, 0.0, 0.001)"
1636558246738840696, 3793, 1636512863, 61829090, base_link, 0.0044962621398, -0.0155128478855, -0.69738914982, 0.716510648135, "(0.001293128298680779, 0.0, 0.0, 0.0, 0.001293605246609708, 0.0, 0.0, 0.0, 0.0015739425407532842)", 0.00299577489886, 0.00430036450911, -0.00161960356213, "(0.001, 0.0, 0.0, 0.0, 0.001, 0.0, 0.0, 0.0, 0.001)", 0.0191327334601, 0.71229070403, 0.373487728147, "(0.001, 0.0, 0.0, 0.0, 0.001, 0.0, 0.0, 0.0, 0.001)"
1636558246764559845, 3794, 1636512863, 81379890, base_link, 0.00453038139851, -0.0155143698032, -0.697403639571, 0.716496296911, "(0.001293128298680779, 0.0, 0.0, 0.0, 0.001293605246609708, 0.0, 0.0, 0.0, 0.0015739425407532842)", 0.00467061816124, 0.0062460708859, -0.00410539811645, "(0.001, 0.0, 0.0, 0.0, 0.001, 0.0, 0.0, 0.0, 0.001)", -0.00131082940578, 1.11899835972, -0.308253023147, "(0.001, 0.0, 0.0, 0.0, 0.001, 0.0, 0.0, 0.0, 0.001)"
1636558246764601839, 3795, 1636512863, 102641105, base_link, 0.00455416119328, -0.015492682815, -0.697422904398, 0.716477863452, "(0.001293128298680779, 0.0, 0.0, 0.0, 0.001293605246609708, 0.0, 0.0, 0.0, 0.0015739425407532842)", 0.00183544111769, 0.00457828497928, -0.00371869755104, "(0.001, 0.0, 0.0, 0.0, 0.001, 0.0, 0.0, 0.0, 0.001)", -0.0794488107179, 0.739699168292, 0.411871614122, "(0.001, 0.0, 0.0, 0.0, 0.001, 0.0, 0.0, 0.0, 0.001)"
1636558246766834254, 3796, 1636512863, 121349096, base_link, 0.00457642716392, -0.0154855343734, -0.69743371523, 0.716467352641, "(0.001293128298680779, 0.0, 0.0, 0.0, 0.001293605246609708, 0.0, 0.0, 0.0, 0.0015739425407532842)", 0.00205938190391, 0.00585975431635, -0.00506717135461, "(0.001, 0.0, 0.0, 0.0, 0.001, 0.0, 0.0, 0.0, 0.001)", 0.0467371123923, 1.12873258584, -0.305610174059, "(0.001, 0.0, 0.0, 0.0, 0.001, 0.0, 0.0, 0.0, 0.001)"
1636558246766846935, 3797, 1636512863, 141690969, base_link, 0.00460896758149, -0.0154771958956, -0.697449092872, 0.716452354785, "(0.001293128298680779, 0.0, 0.0, 0.0, 0.001293605246609708, 0.0, 0.0, 0.0, 0.0015739425407532842)", 0.00272571128748, 0.00408489920498, -0.00304068713374, "(0.001, 0.0, 0.0, 0.0, 0.001, 0.0, 0.0, 0.0, 0.001)", -0.174058885353, 0.635456568073, 0.384504259735, "(0.001, 0.0, 0.0, 0.0, 0.001, 0.0, 0.0, 0.0, 0.001)"
1636558246766852707, 3798, 1636512863, 162147998, base_link, 0.00461572419063, -0.0155099380811, -0.69746326938, 0.716437802449, "(0.001293128298680779, 0.0, 0.0, 0.0, 0.001293605246609708, 0.0, 0.0, 0.0, 0.0015739425407532842)", 0.00465224662058, 0.000214688198069, -0.00506822604925, "(0.001, 0.0, 0.0, 0.0, 0.001, 0.0, 0.0, 0.0, 0.001)", -0.108145363942, 0.958435309311, -0.394746490259, "(0.001, 0.0, 0.0, 0.0, 0.001, 0.0, 0.0, 0.0, 0.001)"
1636558246766861184, 3799, 1636512863, 181366920, base_link, 0.00462667564928, -0.0155178695771, -0.697476914673, 0.716424275897, "(0.001293128298680779, 0.0, 0.0, 0.0, 0.001293605246609708, 0.0, 0.0, 0.0, 0.0015739425407532842)", 0.00344869665296, 2.4633548233e-05, -0.00293963239582, "(0.001, 0.0, 0.0, 0.0, 0.001, 0.0, 0.0, 0.0, 0.001)", -0.19287035567, 0.672520903809, 0.326238128818, "(0.001, 0.0, 0.0, 0.0, 0.001, 0.0, 0.0, 0.0, 0.001)"
1636558246766884517, 3800, 1636512863, 201955080, base_link, 0.00462217019609, -0.0155864950036, -0.69748763481, 0.716412378455, "(0.001293128298680779, 0.0, 0.0, 0.0, 0.001293605246609708, 0.0, 0.0, 0.0, 0.0015739425407532842)", 0.00702654841049, -0.00694578711861, -0.00438999023712, "(0.001, 0.0, 0.0, 0.0, 0.001, 0.0, 0.0, 0.0, 0.001)", -0.210414071189, 0.777206278162, -0.324935054133, "(0.001, 0.0, 0.0, 0.0, 0.001, 0.0, 0.0, 0.0, 0.001)"
1636558246787203743, 3801, 1636512863, 221784114, base_link, 0.00461769290665, -0.0156337682175, -0.697505949042, 0.716393546351, "(0.001293128298680779, 0.0, 0.0, 0.0, 0.001293605246609708, 0.0, 0.0, 0.0, 0.0015739425407532842)", 0.00527904968329, -0.00591496082574, -0.0033819196425, "(0.001, 0.0, 0.0, 0.0, 0.001, 0.0, 0.0, 0.0, 0.001)", -0.330536027623, 0.620838654729, 0.281874783504, "(0.001, 0.0, 0.0, 0.0, 0.001, 0.0, 0.0, 0.0, 0.001)"
1636558246787227824, 3802, 1636512863, 241117000, base_link, 0.00461463334976, -0.0156944817513, -0.697520882503, 0.716377698476, "(0.001293128298680779, 0.0, 0.0, 0.0, 0.001293605246609708, 0.0, 0.0, 0.0, 0.0015739425407532842)", 0.00895868390921, -0.0106808154892, -0.00562923295154, "(0.001, 0.0, 0.0, 0.0, 0.001, 0.0, 0.0, 0.0, 0.001)", 0.0931890685263, 0.929806998438, -0.338361532054, "(0.001, 0.0, 0.0, 0.0, 0.001, 0.0, 0.0, 0.0, 0.001)"
1636558246787315773, 3803, 1636512863, 261729955, base_link, 0.00463165236869, -0.0157285712907, -0.697551336609, 0.716347187219, "(0.001293128298680779, 0.0, 0.0, 0.0, 0.001293605246609708, 0.0, 0.0, 0.0, 0.0015739425407532842)", 0.00570502442041, -0.00406367636368, -0.00522934783804, "(0.001, 0.0, 0.0, 0.0, 0.001, 0.0, 0.0, 0.0, 0.001)", -0.245033780041, 0.575679484188, 0.231620849125, "(0.001, 0.0, 0.0, 0.0, 0.001, 0.0, 0.0, 0.0, 0.001)"
1636558246787325669, 3804, 1636512863, 285027027, base_link, 0.00464032625932, -0.0157486594847, -0.697569423409, 0.716329077046, "(0.001293128298680779, 0.0, 0.0, 0.0, 0.001293605246609708, 0.0, 0.0, 0.0, 0.0015739425407532842)", 0.0063513511982, -0.00422925662843, -0.00769825831218, "(0.001, 0.0, 0.0, 0.0, 0.001, 0.0, 0.0, 0.0, 0.001)", 0.496980880015, 1.1493103309, -0.195470842907, "(0.001, 0.0, 0.0, 0.0, 0.001, 0.0, 0.0, 0.0, 0.001)"
1636558246787342194, 3805, 1636512863, 306512117, base_link, 0.00466396219412, -0.0157505870522, -0.697595442818, 0.716303542239, "(0.001293128298680779, 0.0, 0.0, 0.0, 0.001293605246609708, 0.0, 0.0, 0.0, 0.0015739425407532842)", 0.00385093540564, 0.00101698046117, -0.00530249169266, "(0.001, 0.0, 0.0, 0.0, 0.001, 0.0, 0.0, 0.0, 0.001)", -0.211343047054, 0.630838570268, 0.203007081253, "(0.001, 0.0, 0.0, 0.0, 0.001, 0.0, 0.0, 0.0, 0.001)"
1636558246810999937, 3806, 1636512863, 322529077, base_link, 0.00467968314226, -0.0157695580555, -0.697611945316, 0.71628695043, "(0.0019564028955026402, 0.0, 0.0, 0.0, 0.0019570366684796975, 0.0, 0.0, 0.0, 0.0022384174852343452)", 0.00552399558189, -0.000426141706967, -0.00723075895368, "(0.001, 0.0, 0.0, 0.0, 0.001, 0.0, 0.0, 0.0, 0.001)", 0.500438589449, 1.24553734144, -0.146974859102, "(0.001, 0.0, 0.0, 0.0, 0.001, 0.0, 0.0, 0.0, 0.001)"
1636558246812425363, 3807, 1636512863, 342264890, base_link, 0.00466446997291, -0.0157613246036, -0.697626590709, 0.716272967034, "(0.0017661898506386026, 0.0, 0.0, 0.0, 0.0017657840722956758, 0.0, 0.0, 0.0, 0.0022383402881260978)", -0.00028622751056, -3.58098414038e-05, -0.0054340089069, "(0.001, 0.0, 0.0, 0.0, 0.001, 0.0, 0.0, 0.0, 0.001)", -0.0597834463245, 1.20405091359, -0.109137590863, "(0.001, 0.0, 0.0, 0.0, 0.001, 0.0, 0.0, 0.0, 0.001)"
1636558246833005039, 3808, 1636512863, 361097097, base_link, 0.00465395666826, -0.0157776258189, -0.697628342005, 0.716270970822, "(0.0017661898506386026, 0.0, 0.0, 0.0, 0.0017657840722956758, 0.0, 0.0, 0.0, 0.0022383402881260978)", -0.000176265671234, -0.00284641227361, -0.00105220687557, "(0.001, 0.0, 0.0, 0.0, 0.001, 0.0, 0.0, 0.0, 0.001)", 0.374058735147, 0.687891834658, 0.115319228211, "(0.001, 0.0, 0.0, 0.0, 0.001, 0.0, 0.0, 0.0, 0.001)"
1636558246852233505, 3809, 1636512863, 382222890, base_link, 0.00463522487685, -0.0157790191693, -0.69763381481, 0.71626573119, "(0.0017661898506386026, 0.0, 0.0, 0.0, 0.0017657840722956758, 0.0, 0.0, 0.0, 0.0022383402881260978)", -0.000564162037297, -0.00225465903993, -0.00110740515133, "(0.001, 0.0, 0.0, 0.0, 0.001, 0.0, 0.0, 0.0, 0.001)", -0.0513314756484, 0.702820742813, -0.0302148105713, "(0.001, 0.0, 0.0, 0.0, 0.001, 0.0, 0.0, 0.0, 0.001)"
1636558246870999916, 3810, 1636512863, 400831937, base_link, 0.00461319229065, -0.0157875769254, -0.697627747415, 0.716271594375, "(0.0017661898506386026, 0.0, 0.0, 0.0, 0.0017657840722956758, 0.0, 0.0, 0.0, 0.0022383402881260978)", -0.00248389725985, -0.0049620214685, 0.000490211415431, "(0.001, 0.0, 0.0, 0.0, 0.001, 0.0, 0.0, 0.0, 0.001)", 0.295236289083, 0.921184295271, 0.0169837514333, "(0.001, 0.0, 0.0, 0.0, 0.001, 0.0, 0.0, 0.0, 0.001)"
1636558246902592671, 3811, 1636512863, 421494960, base_link, 0.00459081052144, -0.0158071122607, -0.697634591003, 0.716264641803, "(0.0017661898506386026, 0.0, 0.0, 0.0, 0.0017657840722956758, 0.0, 0.0, 0.0, 0.0022383402881260978)", -0.000709004762009, -0.00396737378972, -0.000693664656038, "(0.001, 0.0, 0.0, 0.0, 0.001, 0.0, 0.0, 0.0, 0.001)", -0.257466800293, 0.613849105956, -0.0474065863476, "(0.001, 0.0, 0.0, 0.0, 0.001, 0.0, 0.0, 0.0, 0.001)"
1636558246912553974, 3812, 1636512863, 442243099, base_link, 0.00459991837545, -0.0158084625944, -0.697644217643, 0.71625517719, "(0.0017661898506386026, 0.0, 0.0, 0.0, 0.0017657840722956758, 0.0, 0.0, 0.0, 0.0022383402881260978)", 0.000408653207824, -0.00364301710686, -0.0020661046635, "(0.001, 0.0, 0.0, 0.0, 0.001, 0.0, 0.0, 0.0, 0.001)", 0.25609803025, 0.990999329694, 0.208051511776, "(0.001, 0.0, 0.0, 0.0, 0.001, 0.0, 0.0, 0.0, 0.001)"
1636558246932873284, 3813, 1636512863, 462752103, base_link, 0.00457620230996, -0.0158112831643, -0.697672718544, 0.716227505403, "(0.0017661898506386026, 0.0, 0.0, 0.0, 0.0017657840722956758, 0.0, 0.0, 0.0, 0.0022383402881260978)", -0.00103078653632, -0.00153931847066, -0.00456379285671, "(0.001, 0.0, 0.0, 0.0, 0.001, 0.0, 0.0, 0.0, 0.001)", -0.327423862006, 0.584894362192, -0.108685073317, "(0.001, 0.0, 0.0, 0.0, 0.001, 0.0, 0.0, 0.0, 0.001)"
1636558246952159145, 3814, 1636512863, 482109069, base_link, 0.00460097919139, -0.0158109449125, -0.697711450617, 0.716189623416, "(0.0017661898506386026, 0.0, 0.0, 0.0, 0.0017657840722956758, 0.0, 0.0, 0.0, 0.0022383402881260978)", 0.00128157962258, 0.000126388817888, -0.010169604884, "(0.001, 0.0, 0.0, 0.0, 0.001, 0.0, 0.0, 0.0, 0.001)", 0.0840111504926, 0.829461271469, 0.250352974472, "(0.001, 0.0, 0.0, 0.0, 0.001, 0.0, 0.0, 0.0, 0.001)"
1636558246971987283, 3815, 1636512863, 501848936, base_link, 0.00459549524769, -0.0158023446295, -0.697762064021, 0.716140537423, "(0.0017661898506386026, 0.0, 0.0, 0.0, 0.0017657840722956758, 0.0, 0.0, 0.0, 0.0022383402881260978)", -0.000788713270709, 0.000679423735702, -0.00994436037521, "(0.001, 0.0, 0.0, 0.0, 0.001, 0.0, 0.0, 0.0, 0.001)", -0.284307650931, 0.623353298597, -0.241671079278, "(0.001, 0.0, 0.0, 0.0, 0.001, 0.0, 0.0, 0.0, 0.001)"
1636558246999150482, 3816, 1636512863, 522289991, base_link, 0.00460871613015, -0.0158093102216, -0.697818833936, 0.716084981305, "(0.0017661898506386026, 0.0, 0.0, 0.0, 0.0017657840722956758, 0.0, 0.0, 0.0, 0.0022383402881260978)", 0.00186253316833, -0.000253841832012, -0.0170574341124, "(0.001, 0.0, 0.0, 0.0, 0.001, 0.0, 0.0, 0.0, 0.001)", -0.0119417169304, 0.939867010166, 0.230920918781, "(0.001, 0.0, 0.0, 0.0, 0.001, 0.0, 0.0, 0.0, 0.001)"
1636558247012805566, 3817, 1636512863, 542774915, base_link, 0.00460272502976, -0.0157873003273, -0.697888500606, 0.716017609276, "(0.0017661898506386026, 0.0, 0.0, 0.0, 0.0017657840722956758, 0.0, 0.0, 0.0, 0.0022383402881260978)", -0.00164983857088, 0.00124661990827, -0.0143045625277, "(0.001, 0.0, 0.0, 0.0, 0.001, 0.0, 0.0, 0.0, 0.001)", 0.117206637552, 0.725496406764, -0.310975522829, "(0.001, 0.0, 0.0, 0.0, 0.001, 0.0, 0.0, 0.0, 0.001)"
1636558247031162424, 3818, 1636512863, 561228036, base_link, 0.0046275324009, -0.0157625193651, -0.69795056402, 0.715957498118, "(0.0017661898506386026, 0.0, 0.0, 0.0, 0.0017657840722956758, 0.0, 0.0, 0.0, 0.0022383402881260978)", -0.00157974419896, 0.0051240983698, -0.0209427035495, "(0.001, 0.0, 0.0, 0.0, 0.001, 0.0, 0.0, 0.0, 0.001)", 0.0420237316689, 0.762030750639, 0.153237543278, "(0.001, 0.0, 0.0, 0.0, 0.001, 0.0, 0.0, 0.0, 0.001)"
1636558247052836765, 3819, 1636512863, 582664966, base_link, 0.00463741386781, -0.0157620758828, -0.698011856658, 0.715897687747, "(0.0017661898506386026, 0.0, 0.0, 0.0, 0.0017657840722956758, 0.0, 0.0, 0.0, 0.0022383402881260978)", -2.1556164567e-05, 0.00269977942975, -0.0213781439645, "(0.001, 0.0, 0.0, 0.0, 0.001, 0.0, 0.0, 0.0, 0.001)", 0.44556899605, 1.01150203258, -0.460179306281, "(0.001, 0.0, 0.0, 0.0, 0.001, 0.0, 0.0, 0.0, 0.001)"
1636558247070654575, 3820, 1636512863, 600645065, base_link, 0.00463741386781, -0.0157620758828, -0.698011856658, 0.715897687747, "(0.0017661898506386026, 0.0, 0.0, 0.0, 0.0017657840722956758, 0.0, 0.0, 0.0, 0.0022383402881260978)", 0.00121523026623, 0.0017624010152, -0.0144657249185, "(0.001, 0.0, 0.0, 0.0, 0.001, 0.0, 0.0, 0.0, 0.001)", -0.276657864961, 0.525366908899, 0.196096714702, "(0.001, 0.0, 0.0, 0.0, 0.001, 0.0, 0.0, 0.0, 0.001)"
1636558247104053897, 3821, 1636512863, 621651887, base_link, 0.00463887918689, -0.0157849933144, -0.698136037707, 0.715776073672, "(0.0017661898506386026, 0.0, 0.0, 0.0, 0.0017657840722956758, 0.0, 0.0, 0.0, 0.0022383402881260978)", 0.0010121541882, -0.00236023315992, -0.0137147263622, "(0.001, 0.0, 0.0, 0.0, 0.001, 0.0, 0.0, 0.0, 0.001)", 0.251758177568, 0.613714183728, -0.498353400058, "(0.001, 0.0, 0.0, 0.0, 0.001, 0.0, 0.0, 0.0, 0.001)"
1636558247111135186, 3822, 1636512863, 641100883, base_link, 0.00464548004469, -0.0157942314198, -0.698196346192, 0.715716999891, "(0.0017661898506386026, 0.0, 0.0, 0.0, 0.0017657840722956758, 0.0, 0.0, 0.0, 0.0022383402881260978)", 0.00321205987574, -0.00223609037602, -0.0197881281144, "(0.001, 0.0, 0.0, 0.0, 0.001, 0.0, 0.0, 0.0, 0.001)", 0.0355220363491, 0.893972359841, 0.176557012398, "(0.001, 0.0, 0.0, 0.0, 0.001, 0.0, 0.0, 0.0, 0.001)"
1636558247131923521, 3823, 1636512863, 661724090, base_link, 0.00465169969076, -0.0158376008577, -0.698255247549, 0.715658536846, "(0.0017661898506386026, 0.0, 0.0, 0.0, 0.0017657840722956758, 0.0, 0.0, 0.0, 0.0022383402881260978)", 0.00349212265411, -0.00336696283291, -0.0134495297845, "(0.001, 0.0, 0.0, 0.0, 0.001, 0.0, 0.0, 0.0, 0.001)", 0.297434446261, 0.618785873409, -0.517248517678, "(0.001, 0.0, 0.0, 0.0, 0.001, 0.0, 0.0, 0.0, 0.001)"
1636558247151857480, 3824, 1636512863, 681797027, base_link, 0.00467812469552, -0.0158383220805, -0.698324029371, 0.715591232972, "(0.0017661898506386026, 0.0, 0.0, 0.0, 0.0017657840722956758, 0.0, 0.0, 0.0, 0.0022383402881260978)", 0.00598195125319, -0.000581050798873, -0.021214438178, "(0.001, 0.0, 0.0, 0.0, 0.001, 0.0, 0.0, 0.0, 0.001)", 0.0102543078404, 0.880975385023, 0.0965555500719, "(0.001, 0.0, 0.0, 0.0, 0.001, 0.0, 0.0, 0.0, 0.001)"
1636558247171789192, 3825, 1636512863, 701725006, base_link, 0.00471689694934, -0.0158732418208, -0.69839261521, 0.715523267335, "(0.0017661898506386026, 0.0, 0.0, 0.0, 0.0017657840722956758, 0.0, 0.0, 0.0, 0.0022383402881260978)", 0.00598491713188, -1.14962890746e-06, -0.0154462221933, "(0.001, 0.0, 0.0, 0.0, 0.001, 0.0, 0.0, 0.0, 0.001)", 0.316953736471, 0.605345355853, -0.459776490886, "(0.001, 0.0, 0.0, 0.0, 0.001, 0.0, 0.0, 0.0, 0.001)"
1636558247201964515, 3826, 1636512863, 721004009, base_link, 0.00477366087143, -0.015875953876, -0.698483264941, 0.715434339997, "(0.0017661898506386026, 0.0, 0.0, 0.0, 0.0017657840722956758, 0.0, 0.0, 0.0, 0.0022383402881260978)", 0.0100722402666, 0.00457944313528, -0.0267807416701, "(0.001, 0.0, 0.0, 0.0, 0.001, 0.0, 0.0, 0.0, 0.001)", -0.220035172373, 0.996988887287, 0.197966758863, "(0.001, 0.0, 0.0, 0.0, 0.001, 0.0, 0.0, 0.0, 0.001)"
1636558247211524692, 3827, 1636512863, 741530895, base_link, 0.00481411776529, -0.0159014002862, -0.698580667065, 0.715338396384, "(0.0017661898506386026, 0.0, 0.0, 0.0, 0.0017657840722956758, 0.0, 0.0, 0.0, 0.0022383402881260978)", 0.00673794370954, 0.00212187337855, -0.0209695811782, "(0.001, 0.0, 0.0, 0.0, 0.001, 0.0, 0.0, 0.0, 0.001)", 0.178190193139, 0.713277822266, -0.287256179218, "(0.001, 0.0, 0.0, 0.0, 0.001, 0.0, 0.0, 0.0, 0.001)"
1636558247232322881, 3828, 1636512863, 761080980, base_link, 0.00483621860215, -0.0159087232359, -0.698699456969, 0.715222058067, "(0.0017661898506386026, 0.0, 0.0, 0.0, 0.0017657840722956758, 0.0, 0.0, 0.0, 0.0022383402881260978)", 0.00798080341349, 0.00327470205462, -0.0356242901219, "(0.001, 0.0, 0.0, 0.0, 0.001, 0.0, 0.0, 0.0, 0.001)", -0.65163584501, 1.08661547621, 0.315782798364, "(0.001, 0.0, 0.0, 0.0, 0.001, 0.0, 0.0, 0.0, 0.001)"
1636558247252964425, 3829, 1636512863, 782264947, base_link, 0.00484001841197, -0.0159442491795, -0.698828570721, 0.715095087303, "(0.0017661898506386026, 0.0, 0.0, 0.0, 0.0017657840722956758, 0.0, 0.0, 0.0, 0.0022383402881260978)", 0.00416859462098, -0.00258395945985, -0.0275229251789, "(0.001, 0.0, 0.0, 0.0, 0.001, 0.0, 0.0, 0.0, 0.001)", 0.0751102878627, 0.687833964884, -0.238217334546, "(0.001, 0.0, 0.0, 0.0, 0.001, 0.0, 0.0, 0.0, 0.001)"
1636558247272762849, 3830, 1636512863, 802661895, base_link, 0.00482223976621, -0.0159776462158, -0.698977985598, 0.714948415254, "(0.0017661898506386026, 0.0, 0.0, 0.0, 0.0017657840722956758, 0.0, 0.0, 0.0, 0.0022383402881260978)", 0.00409513504642, -0.00675860578638, -0.0460626713482, "(0.001, 0.0, 0.0, 0.0, 0.001, 0.0, 0.0, 0.0, 0.001)", -0.645170247427, 0.986938172639, 0.21375658367, "(0.001, 0.0, 0.0, 0.0, 0.001, 0.0, 0.0, 0.0, 0.001)"
1636558247299262983, 3831, 1636512863, 821547985, base_link, 0.00482223976621, -0.0159776462158, -0.698977985598, 0.714948415254, "(0.0017661898506386026, 0.0, 0.0, 0.0, 0.0017657840722956758, 0.0, 0.0, 0.0, 0.0022383402881260978)", 0.00331143564872, -0.0082517200803, -0.0325646665847, "(0.001, 0.0, 0.0, 0.0, 0.001, 0.0, 0.0, 0.0, 0.001)", 0.217831876947, 0.764799641876, -0.148596937611, "(0.001, 0.0, 0.0, 0.0, 0.001, 0.0, 0.0, 0.0, 0.001)"
1636558247311109993, 3832, 1636512863, 841144084, base_link, 0.00478116103944, -0.0160558746949, -0.699292838069, 0.714638982992, "(0.0017661898506386026, 0.0, 0.0, 0.0, 0.0017657840722956758, 0.0, 0.0, 0.0, 0.0022383402881260978)", 0.00223097492911, -0.00998239338989, -0.0527131707335, "(0.001, 0.0, 0.0, 0.0, 0.001, 0.0, 0.0, 0.0, 0.001)", -0.246639054576, 0.91775963603, 0.185139675881, "(0.001, 0.0, 0.0, 0.0, 0.001, 0.0, 0.0, 0.0, 0.001)"
1636558247332438526, 3833, 1636512863, 862297058, base_link, 0.0047723246594, -0.0161045657146, -0.699455836015, 0.714478412092, "(0.0017661898506386026, 0.0, 0.0, 0.0, 0.0017657840722956758, 0.0, 0.0, 0.0, 0.0022383402881260978)", 0.00277805267982, -0.00719904022697, -0.0365480097336, "(0.001, 0.0, 0.0, 0.0, 0.001, 0.0, 0.0, 0.0, 0.001)", 0.354177330326, 0.624714739695, -0.147105519389, "(0.001, 0.0, 0.0, 0.0, 0.001, 0.0, 0.0, 0.0, 0.001)"
1636558247351292912, 3834, 1636512863, 881166934, base_link, 0.00474062276052, -0.0161214580177, -0.699637751323, 0.714300106405, "(0.0017661898506386026, 0.0, 0.0, 0.0, 0.0017657840722956758, 0.0, 0.0, 0.0, 0.0022383402881260978)", 0.00114831247941, -0.00892889464555, -0.0579078883206, "(0.001, 0.0, 0.0, 0.0, 0.001, 0.0, 0.0, 0.0, 0.001)", -0.117497208918, 1.06207478701, 0.232048779489, "(0.001, 0.0, 0.0, 0.0, 0.001, 0.0, 0.0, 0.0, 0.001)"
1636558247370929957, 3835, 1636512863, 900852918, base_link, 0.00472080593011, -0.0161528125652, -0.69981323848, 0.714127601963, "(0.0017661898506386026, 0.0, 0.0, 0.0, 0.0017657840722956758, 0.0, 0.0, 0.0, 0.0022383402881260978)", 0.00014363254991, -0.00727982192475, -0.0392352964208, "(0.001, 0.0, 0.0, 0.0, 0.001, 0.0, 0.0, 0.0, 0.001)", 0.305624507746, 0.602530331436, 0.0306693803422, "(0.001, 0.0, 0.0, 0.0, 0.001, 0.0, 0.0, 0.0, 0.001)"
1636558247405943911, 3836, 1636512863, 923224925, base_link, 0.00465867521083, -0.0161869114825, -0.699995091764, 0.713948984275, "(0.0017661898506386026, 0.0, 0.0, 0.0, 0.0017657840722956758, 0.0, 0.0, 0.0, 0.0022383402881260978)", -0.00223690771621, -0.013278073717, -0.0600498699486, "(0.001, 0.0, 0.0, 0.0, 0.001, 0.0, 0.0, 0.0, 0.001)", -0.238036231252, 0.872464496051, 0.199377384546, "(0.001, 0.0, 0.0, 0.0, 0.001, 0.0, 0.0, 0.0, 0.001)"
1636558247416375410, 3837, 1636512863, 946127891, base_link, 0.00461650388661, -0.0162357880692, -0.700181387468, 0.713765445872, "(0.0017661898506386026, 0.0, 0.0, 0.0, 0.0017657840722956758, 0.0, 0.0, 0.0, 0.0022383402881260978)", -0.00101028015446, -0.0112805441714, -0.0408130317756, "(0.001, 0.0, 0.0, 0.0, 0.001, 0.0, 0.0, 0.0, 0.001)", 0.368435772552, 0.493132999229, 0.129638942154, "(0.001, 0.0, 0.0, 0.0, 0.001, 0.0, 0.0, 0.0, 0.001)"
1636558247431010406, 3838, 1636512863, 960956096, base_link, 0.00456672814565, -0.0162420213463, -0.70037658543, 0.713574088878, "(0.0017661898506386026, 0.0, 0.0, 0.0, 0.0017657840722956758, 0.0, 0.0, 0.0, 0.0022383402881260978)", -0.00436916964409, -0.0129766099128, -0.0636310568198, "(0.001, 0.0, 0.0, 0.0, 0.001, 0.0, 0.0, 0.0, 0.001)", 0.078011519816, 0.881982529108, 0.150327632225, "(0.001, 0.0, 0.0, 0.0, 0.001, 0.0, 0.0, 0.0, 0.001)"
1636558247453145446, 3839, 1636512863, 982520103, base_link, 0.00452342235459, -0.0162504875239, -0.700578730984, 0.713375708864, "(0.0017661898506386026, 0.0, 0.0, 0.0, 0.0017657840722956758, 0.0, 0.0, 0.0, 0.0022383402881260978)", -0.00422751275352, -0.0076353069778, -0.0442582593697, "(0.001, 0.0, 0.0, 0.0, 0.001, 0.0, 0.0, 0.0, 0.001)", 0.34547247403, 0.535771787414, 0.170516403419, "(0.001, 0.0, 0.0, 0.0, 0.001, 0.0, 0.0, 0.0, 0.001)"
1636558247470954471, 3840, 1636512864, 897884, base_link, 0.00448448361645, -0.0162408218914, -0.700803026439, 0.713155833773, "(0.0017661898506386026, 0.0, 0.0, 0.0, 0.0017657840722956758, 0.0, 0.0, 0.0, 0.0022383402881260978)", -0.00726779138873, -0.00781712039194, -0.0711309173298, "(0.001, 0.0, 0.0, 0.0, 0.001, 0.0, 0.0, 0.0, 0.001)", 0.102225401587, 0.943917134857, 0.0676131016326, "(0.001, 0.0, 0.0, 0.0, 0.001, 0.0, 0.0, 0.0, 0.001)"
1636558247503275194, 3841, 1636512864, 21972894, base_link, 0.00444930701123, -0.0162391692466, -0.701026154746, 0.712936759756, "(0.0017661898506386026, 0.0, 0.0, 0.0, 0.0017657840722956758, 0.0, 0.0, 0.0, 0.0022383402881260978)", -0.00514347318361, -0.00537115652431, -0.0493267550755, "(0.001, 0.0, 0.0, 0.0, 0.001, 0.0, 0.0, 0.0, 0.001)", 0.248058481164, 0.527855946605, 0.186148677317, "(0.001, 0.0, 0.0, 0.0, 0.001, 0.0, 0.0, 0.0, 0.001)"
1636558247511571116, 3842, 1636512864, 41465044, base_link, 0.00440536948897, -0.0162340690524, -0.701270210289, 0.712697088448, "(0.0017661898506386026, 0.0, 0.0, 0.0, 0.0017657840722956758, 0.0, 0.0, 0.0, 0.0022383402881260978)", -0.00832184455979, -0.00725321216807, -0.0782926985457, "(0.001, 0.0, 0.0, 0.0, 0.001, 0.0, 0.0, 0.0, 0.001)", 0.158523409601, 0.757264639723, -0.146139935119, "(0.001, 0.0, 0.0, 0.0, 0.001, 0.0, 0.0, 0.0, 0.001)"
1636558247532786732, 3843, 1636512864, 62560081, base_link, 0.004392228041, -0.016221654551, -0.701513285757, 0.712458192572, "(0.0017661898506386026, 0.0, 0.0, 0.0, 0.0017657840722956758, 0.0, 0.0, 0.0, 0.0022383402881260978)", -0.00406223044143, -0.00316750647757, -0.0539455177205, "(0.001, 0.0, 0.0, 0.0, 0.001, 0.0, 0.0, 0.0, 0.001)", 0.365763173355, 0.642604632158, 0.180189512394, "(0.001, 0.0, 0.0, 0.0, 0.001, 0.0, 0.0, 0.0, 0.001)"
1636558247552841460, 3844, 1636512864, 81079006, base_link, 0.00435991907859, -0.016185810212, -0.701780131755, 0.712196361495, "(0.0017661898506386026, 0.0, 0.0, 0.0, 0.0017657840722956758, 0.0, 0.0, 0.0, 0.0022383402881260978)", -0.0101309993122, -0.00136172622594, -0.0856343039392, "(0.001, 0.0, 0.0, 0.0, 0.001, 0.0, 0.0, 0.0, 0.001)", 0.255547602119, 0.843192978356, -0.228180058269, "(0.001, 0.0, 0.0, 0.0, 0.001, 0.0, 0.0, 0.0, 0.001)"
1636558247571604442, 3845, 1636512864, 101634025, base_link, 0.0043576878129, -0.016133962821, -0.702045466654, 0.71193600032, "(0.0017661898506386026, 0.0, 0.0, 0.0, 0.0017657840722956758, 0.0, 0.0, 0.0, 0.0022383402881260978)", -0.00594913929515, 0.00136630821711, -0.058731746192, "(0.001, 0.0, 0.0, 0.0, 0.001, 0.0, 0.0, 0.0, 0.001)", 0.458383318387, 0.588572190179, 0.140042704651, "(0.001, 0.0, 0.0, 0.0, 0.001, 0.0, 0.0, 0.0, 0.001)"
1636558247602465065, 3846, 1636512864, 121689081, base_link, 0.0043584428717, -0.0160726837308, -0.702333521442, 0.711653214334, "(0.0017661898506386026, 0.0, 0.0, 0.0, 0.0017657840722956758, 0.0, 0.0, 0.0, 0.0022383402881260978)", -0.0108709576419, 0.00719935669767, -0.0929633270483, "(0.001, 0.0, 0.0, 0.0, 0.001, 0.0, 0.0, 0.0, 0.001)", 0.296638334866, 0.967803076711, -0.406154389344, "(0.001, 0.0, 0.0, 0.0, 0.001, 0.0, 0.0, 0.0, 0.001)"
1636558247612471966, 3847, 1636512864, 142347097, base_link, 0.00439670660591, -0.0159907520149, -0.702614832139, 0.711377088807, "(0.0017661898506386026, 0.0, 0.0, 0.0, 0.0017657840722956758, 0.0, 0.0, 0.0, 0.0022383402881260978)", -0.00586596633375, 0.0092799508811, -0.0630258381046, "(0.001, 0.0, 0.0, 0.0, 0.001, 0.0, 0.0, 0.0, 0.001)", 0.518690276634, 0.512923069009, 0.110290410366, "(0.001, 0.0, 0.0, 0.0, 0.001, 0.0, 0.0, 0.0, 0.001)"
1636558247632399396, 3848, 1636512864, 161720991, base_link, 0.00439670660591, -0.0159907520149, -0.702614832139, 0.711377088807, "(0.0017661898506386026, 0.0, 0.0, 0.0, 0.0017657840722956758, 0.0, 0.0, 0.0, 0.0022383402881260978)", -0.00977272156688, 0.0170565691094, -0.0998730079624, "(0.001, 0.0, 0.0, 0.0, 0.001, 0.0, 0.0, 0.0, 0.001)", 0.148498554087, 0.981825431744, -0.459227400824, "(0.001, 0.0, 0.0, 0.0, 0.001, 0.0, 0.0, 0.0, 0.001)"
1636558247652959227, 3849, 1636512864, 182945966, base_link, 0.00446956448383, -0.0158141832316, -0.703237912971, 0.710764639218, "(0.0017661898506386026, 0.0, 0.0, 0.0, 0.0017657840722956758, 0.0, 0.0, 0.0, 0.0022383402881260978)", -0.00587977797551, 0.012813762569, -0.0692229548367, "(0.001, 0.0, 0.0, 0.0, 0.001, 0.0, 0.0, 0.0, 0.001)", 0.172917203664, 0.55192622917, 0.117158997595, "(0.001, 0.0, 0.0, 0.0, 0.001, 0.0, 0.0, 0.0, 0.001)"
1636558247671357456, 3850, 1636512864, 201191902, base_link, 0.00448146487816, -0.015730049084, -0.703582033843, 0.710425790411, "(0.0017661898506386026, 0.0, 0.0, 0.0, 0.0017657840722956758, 0.0, 0.0, 0.0, 0.0022383402881260978)", -0.0115392816097, 0.0171411562188, -0.110422788188, "(0.001, 0.0, 0.0, 0.0, 0.001, 0.0, 0.0, 0.0, 0.001)", 0.110773462799, 0.894403845478, -0.386218463351, "(0.001, 0.0, 0.0, 0.0, 0.001, 0.0, 0.0, 0.0, 0.001)"
1636558247699486595, 3851, 1636512864, 221941947, base_link, 0.00452665558921, -0.0156398761527, -0.703924518364, 0.710088146717, "(0.0017661898506386026, 0.0, 0.0, 0.0, 0.0017657840722956758, 0.0, 0.0, 0.0, 0.0022383402881260978)", -0.00598777866857, 0.0128678078252, -0.0761534060605, "(0.001, 0.0, 0.0, 0.0, 0.001, 0.0, 0.0, 0.0, 0.001)", -0.00920597064643, 0.443872756998, 0.214770434424, "(0.001, 0.0, 0.0, 0.0, 0.001, 0.0, 0.0, 0.0, 0.001)"
1636558247710928149, 3852, 1636512864, 240856885, base_link, 0.0045406442484, -0.0155972765429, -0.704290762124, 0.709725742735, "(0.0017661898506386026, 0.0, 0.0, 0.0, 0.0017657840722956758, 0.0, 0.0, 0.0, 0.0022383402881260978)", -0.00748569895583, 0.0133691090927, -0.119644828039, "(0.001, 0.0, 0.0, 0.0, 0.001, 0.0, 0.0, 0.0, 0.001)", -0.345305342175, 0.914019996976, -0.422889339842, "(0.001, 0.0, 0.0, 0.0, 0.001, 0.0, 0.0, 0.0, 0.001)"
1636558247731972355, 3853, 1636512864, 261867046, base_link, 0.00454295743566, -0.0155276174655, -0.704662747411, 0.709357925905, "(0.0017661898506386026, 0.0, 0.0, 0.0, 0.0017657840722956758, 0.0, 0.0, 0.0, 0.0022383402881260978)", -0.00672566558587, 0.00723326536649, -0.0820669289295, "(0.001, 0.0, 0.0, 0.0, 0.001, 0.0, 0.0, 0.0, 0.001)", -0.229895291696, 0.639955470205, 0.386831187248, "(0.001, 0.0, 0.0, 0.0, 0.001, 0.0, 0.0, 0.0, 0.001)"
1636558247752362070, 3854, 1636512864, 282279014, base_link, 0.00451567973739, -0.0155008773488, -0.705054275726, 0.708969533703, "(0.0017661898506386026, 0.0, 0.0, 0.0, 0.0017657840722956758, 0.0, 0.0, 0.0, 0.0022383402881260978)", -0.0108961042482, 0.00402554910668, -0.129175946364, "(0.001, 0.0, 0.0, 0.0, 0.001, 0.0, 0.0, 0.0, 0.001)", -0.200372915846, 0.775022709098, -0.376484432555, "(0.001, 0.0, 0.0, 0.0, 0.001, 0.0, 0.0, 0.0, 0.001)"
1636558247790465605, 3855, 1636512864, 305743932, base_link, 0.00449614782251, -0.0154693763077, -0.705450166441, 0.708576421934, "(0.0017661898506386026, 0.0, 0.0, 0.0, 0.0017657840722956758, 0.0, 0.0, 0.0, 0.0022383402881260978)", -0.00599761584906, 0.000437775334958, -0.0875773955959, "(0.001, 0.0, 0.0, 0.0, 0.001, 0.0, 0.0, 0.0, 0.001)", -0.347392816435, 0.609362976328, 0.370090257663, "(0.001, 0.0, 0.0, 0.0, 0.001, 0.0, 0.0, 0.0, 0.001)"
1636558247791895861, 3856, 1636512864, 321888923, base_link, 0.00443242614542, -0.0154727865073, -0.705852427289, 0.708176035577, "(0.0017661898506386026, 0.0, 0.0, 0.0, 0.0017657840722956758, 0.0, 0.0, 0.0, 0.0022383402881260978)", -0.0107315378529, -0.00690978251846, -0.134774282748, "(0.001, 0.0, 0.0, 0.0, 0.001, 0.0, 0.0, 0.0, 0.001)", -0.0428933368878, 0.861002119741, -0.352532656034, "(0.001, 0.0, 0.0, 0.0, 0.001, 0.0, 0.0, 0.0, 0.001)"
1636558247812150478, 3857, 1636512864, 342060089, base_link, 0.00438472076831, -0.0154859214915, -0.706252368334, 0.707777191411, "(0.0022347793892740914, 0.0, 0.0, 0.0, 0.0022328401639362117, 0.0, 0.0, 0.0, 0.002920370703983155)", -0.00546581940318, -0.00753129227967, -0.0897748286886, "(0.001, 0.0, 0.0, 0.0, 0.001, 0.0, 0.0, 0.0, 0.001)", -0.353483274091, 0.612176899029, 0.357810087469, "(0.001, 0.0, 0.0, 0.0, 0.001, 0.0, 0.0, 0.0, 0.001)"
1636558247831423642, 3858, 1636512864, 361227035, base_link, 0.00428260534234, -0.0155042934482, -0.706657790276, 0.707372634203, "(0.0022347793892740914, 0.0, 0.0, 0.0, 0.0022328401639362117, 0.0, 0.0, 0.0, 0.002920370703983155)", -0.0122078515615, -0.0178282334777, -0.136363121504, "(0.001, 0.0, 0.0, 0.0, 0.001, 0.0, 0.0, 0.0, 0.001)", 0.212459396469, 1.08838761111, -0.203874636326, "(0.001, 0.0, 0.0, 0.0, 0.001, 0.0, 0.0, 0.0, 0.001)"
1636558247852035341, 3859, 1636512864, 382010936, base_link, 0.00419906416044, -0.0155119599552, -0.70706661009, 0.706964324315, "(0.0022347793892740914, 0.0, 0.0, 0.0, 0.0022328401639362117, 0.0, 0.0, 0.0, 0.002920370703983155)", -0.00893143210846, -0.0116905409853, -0.0915022850647, "(0.001, 0.0, 0.0, 0.0, 0.001, 0.0, 0.0, 0.0, 0.001)", -0.28831259696, 0.408908165366, 0.238774309456, "(0.001, 0.0, 0.0, 0.0, 0.001, 0.0, 0.0, 0.0, 0.001)"
1636558247873638563, 3860, 1636512864, 403595924, base_link, 0.00412436743076, -0.0155802865986, -0.707480749501, 0.706548818801, "(0.0022347793892740914, 0.0, 0.0, 0.0, 0.0022328401639362117, 0.0, 0.0, 0.0, 0.002920370703983155)", -0.00739168216309, -0.0228457943831, -0.139228007925, "(0.001, 0.0, 0.0, 0.0, 0.001, 0.0, 0.0, 0.0, 0.001)", 0.180560345153, 0.886481116761, -0.397074054591, "(0.001, 0.0, 0.0, 0.0, 0.001, 0.0, 0.0, 0.0, 0.001)"
1636558247903634193, 3861, 1636512864, 422065019, base_link, 0.00403585832818, -0.0156099804272, -0.707902938141, 0.706125676159, "(0.0022347793892740914, 0.0, 0.0, 0.0, 0.0022328401639362117, 0.0, 0.0, 0.0, 0.002920370703983155)", -0.00616058704235, -0.0155181775992, -0.0943354625795, "(0.001, 0.0, 0.0, 0.0, 0.001, 0.0, 0.0, 0.0, 0.001)", -0.22291114458, 0.704786486641, 0.292772774909, "(0.001, 0.0, 0.0, 0.0, 0.001, 0.0, 0.0, 0.0, 0.001)"
1636558247911118338, 3862, 1636512864, 441030025, base_link, 0.00395715127335, -0.0156771527509, -0.708332964085, 0.705693261854, "(0.0022347793892740914, 0.0, 0.0, 0.0, 0.0022328401639362117, 0.0, 0.0, 0.0, 0.002920370703983155)", -0.00724756703814, -0.0250887365417, -0.144222179476, "(0.001, 0.0, 0.0, 0.0, 0.001, 0.0, 0.0, 0.0, 0.001)", 0.369456728752, 0.680049179849, -0.456272579236, "(0.001, 0.0, 0.0, 0.0, 0.001, 0.0, 0.0, 0.0, 0.001)"
1636558247933313163, 3863, 1636512864, 462676048, base_link, 0.00389022740934, -0.015727119673, -0.708781224167, 0.705242298864, "(0.0022347793892740914, 0.0, 0.0, 0.0, 0.0022328401639362117, 0.0, 0.0, 0.0, 0.002920370703983155)", -0.00225242162915, -0.0155168404861, -0.0993214810976, "(0.001, 0.0, 0.0, 0.0, 0.001, 0.0, 0.0, 0.0, 0.001)", -0.194234799432, 0.62739476868, 0.114116194383, "(0.001, 0.0, 0.0, 0.0, 0.001, 0.0, 0.0, 0.0, 0.001)"
1636558247950859924, 3864, 1636512864, 480849027, base_link, 0.00381715535321, -0.0158040620587, -0.709241527733, 0.704778061724, "(0.0022347793892740914, 0.0, 0.0, 0.0, 0.0022328401639362117, 0.0, 0.0, 0.0, 0.002920370703983155)", -0.00283221939861, -0.0259797999592, -0.153788145681, "(0.001, 0.0, 0.0, 0.0, 0.001, 0.0, 0.0, 0.0, 0.001)", 0.417412201577, 0.653500879072, -0.385401045627, "(0.001, 0.0, 0.0, 0.0, 0.001, 0.0, 0.0, 0.0, 0.001)"
1636558247971873286, 3865, 1636512864, 501837968, base_link, 0.00375073892844, -0.0158662811057, -0.709711242378, 0.704304014985, "(0.0022347793892740914, 0.0, 0.0, 0.0, 0.0022328401639362117, 0.0, 0.0, 0.0, 0.002920370703983155)", -0.000682342229471, -0.0165661502455, -0.104703831838, "(0.001, 0.0, 0.0, 0.0, 0.001, 0.0, 0.0, 0.0, 0.001)", -0.117664594243, 0.557477562467, 0.0636165451868, "(0.001, 0.0, 0.0, 0.0, 0.001, 0.0, 0.0, 0.0, 0.001)"
1636558248000721640, 3866, 1636512864, 522339105, base_link, 0.00375073892844, -0.0158662811057, -0.709711242378, 0.704304014985, "(0.0022347793892740914, 0.0, 0.0, 0.0, 0.0022328401639362117, 0.0, 0.0, 0.0, 0.002920370703983155)", -0.00053757989864, -0.0240771174899, -0.164309134189, "(0.001, 0.0, 0.0, 0.0, 0.001, 0.0, 0.0, 0.0, 0.001)", 0.723887304151, 0.956083942004, -0.0735608915355, "(0.001, 0.0, 0.0, 0.0, 0.001, 0.0, 0.0, 0.0, 0.001)"
1636558248012443996, 3867, 1636512864, 541166067, base_link, 0.00370261780569, -0.0159285584929, -0.710208920722, 0.703801009216, "(0.0022347793892740914, 0.0, 0.0, 0.0, 0.0022328401639362117, 0.0, 0.0, 0.0, 0.002920370703983155)", 0.000117351692966, -0.014512918587, -0.113876407393, "(0.001, 0.0, 0.0, 0.0, 0.001, 0.0, 0.0, 0.0, 0.001)", -0.113260388517, 0.371344761666, -0.0272178738197, "(0.001, 0.0, 0.0, 0.0, 0.001, 0.0, 0.0, 0.0, 0.001)"
1636558248031319977, 3868, 1636512864, 561239004, base_link, 0.00363304394951, -0.0160542345508, -0.711242072307, 0.702754421633, "(0.0022347793892740914, 0.0, 0.0, 0.0, 0.0022328401639362117, 0.0, 0.0, 0.0, 0.002920370703983155)", 0.00413511227767, -0.0193380679973, -0.175268449349, "(0.001, 0.0, 0.0, 0.0, 0.001, 0.0, 0.0, 0.0, 0.001)", 0.858711533131, 0.718194446424, -0.0292230424211, "(0.001, 0.0, 0.0, 0.0, 0.001, 0.0, 0.0, 0.0, 0.001)"
1636558248052524850, 3869, 1636512864, 582444906, base_link, 0.00360646823627, -0.0160890774048, -0.711788567594, 0.702200234988, "(0.0022347793892740914, 0.0, 0.0, 0.0, 0.0022328401639362117, 0.0, 0.0, 0.0, 0.002920370703983155)", 0.000991401497247, -0.0146942996614, -0.182749194982, "(0.001, 0.0, 0.0, 0.0, 0.001, 0.0, 0.0, 0.0, 0.001)", 0.314073960454, 0.695196188912, -0.190361804741, "(0.001, 0.0, 0.0, 0.0, 0.001, 0.0, 0.0, 0.0, 0.001)"
1636558248071323674, 3870, 1636512864, 601320028, base_link, 0.00360477118818, -0.0161268118155, -0.712338630369, 0.701641366547, "(0.0022347793892740914, 0.0, 0.0, 0.0, 0.0022328401639362117, 0.0, 0.0, 0.0, 0.002920370703983155)", 0.00250989807147, -0.00750653456847, -0.124338533664, "(0.001, 0.0, 0.0, 0.0, 0.001, 0.0, 0.0, 0.0, 0.001)", 0.381930936333, 0.374135734464, 0.329684407629, "(0.001, 0.0, 0.0, 0.0, 0.001, 0.0, 0.0, 0.0, 0.001)"
1636558248098352361, 3871, 1636512864, 621895074, base_link, 0.00359561413487, -0.0161704388355, -0.712911582161, 0.701058246144, "(0.0022347793892740914, 0.0, 0.0, 0.0, 0.0022328401639362117, 0.0, 0.0, 0.0, 0.002920370703983155)", 0.00273344967882, -0.00735540380931, -0.128623076948, "(0.001, 0.0, 0.0, 0.0, 0.001, 0.0, 0.0, 0.0, 0.001)", 0.149306682469, 0.298883866155, -0.0957052183701, "(0.001, 0.0, 0.0, 0.0, 0.001, 0.0, 0.0, 0.0, 0.001)"
1636558248112701491, 3872, 1636512864, 642577886, base_link, 0.00361287286265, -0.0162331655962, -0.713498851911, 0.700459006514, "(0.0022347793892740914, 0.0, 0.0, 0.0, 0.0022328401639362117, 0.0, 0.0, 0.0, 0.002920370703983155)", 0.00892220140529, -0.0111811985921, -0.197066662916, "(0.001, 0.0, 0.0, 0.0, 0.001, 0.0, 0.0, 0.0, 0.001)", 0.0177581023129, 0.584109665991, 0.226159910428, "(0.001, 0.0, 0.0, 0.0, 0.001, 0.0, 0.0, 0.0, 0.001)"
1636558248131689519, 3873, 1636512864, 661712884, base_link, 0.00357173296987, -0.0163141354361, -0.714103488564, 0.699840910014, "(0.0022347793892740914, 0.0, 0.0, 0.0, 0.0022328401639362117, 0.0, 0.0, 0.0, 0.002920370703983155)", 0.00390065317848, -0.0122769276657, -0.136265409974, "(0.001, 0.0, 0.0, 0.0, 0.001, 0.0, 0.0, 0.0, 0.001)", 0.0573038934654, 0.494633733585, -0.193470408224, "(0.001, 0.0, 0.0, 0.0, 0.001, 0.0, 0.0, 0.0, 0.001)"
1636558248151463828, 3874, 1636512864, 681468009, base_link, 0.00357311646369, -0.0163853869843, -0.714718989943, 0.699210638755, "(0.0022347793892740914, 0.0, 0.0, 0.0, 0.0022328401639362117, 0.0, 0.0, 0.0, 0.002920370703983155)", 0.00899152842464, -0.0175523275273, -0.207781935567, "(0.001, 0.0, 0.0, 0.0, 0.001, 0.0, 0.0, 0.0, 0.001)", 0.0294513886773, 0.623740051156, 0.318672676704, "(0.001, 0.0, 0.0, 0.0, 0.001, 0.0, 0.0, 0.0, 0.001)"
1636558248172225296, 3875, 1636512864, 702214002, base_link, 0.00355685393404, -0.0164765102026, -0.715356556446, 0.698556275866, "(0.0022347793892740914, 0.0, 0.0, 0.0, 0.0022328401639362117, 0.0, 0.0, 0.0, 0.002920370703983155)", 0.00617844579309, -0.0133887926569, -0.143788922447, "(0.001, 0.0, 0.0, 0.0, 0.001, 0.0, 0.0, 0.0, 0.001)", 0.219343982372, 0.501621616267, -0.273037687899, "(0.001, 0.0, 0.0, 0.0, 0.001, 0.0, 0.0, 0.0, 0.001)"
1636558248195690422, 3876, 1636512864, 721235990, base_link, 0.00357624655746, -0.0165382356575, -0.715992101037, 0.697903294501, "(0.0022347793892740914, 0.0, 0.0, 0.0, 0.0022328401639362117, 0.0, 0.0, 0.0, 0.002920370703983155)", 0.0119399218186, -0.0145335159027, -0.217435716448, "(0.001, 0.0, 0.0, 0.0, 0.001, 0.0, 0.0, 0.0, 0.001)", 0.398843731451, 0.670770162318, 0.440959998764, "(0.001, 0.0, 0.0, 0.0, 0.001, 0.0, 0.0, 0.0, 0.001)"
1636558248211735588, 3877, 1636512864, 741663932, base_link, 0.00357667853253, -0.0166048884694, -0.716634031265, 0.697242533329, "(0.0022347793892740914, 0.0, 0.0, 0.0, 0.0022328401639362117, 0.0, 0.0, 0.0, 0.002920370703983155)", 0.00610200763384, -0.009606096353, -0.146760618304, "(0.001, 0.0, 0.0, 0.0, 0.001, 0.0, 0.0, 0.0, 0.001)", 0.368021363322, 0.540172466409, -0.484560544028, "(0.001, 0.0, 0.0, 0.0, 0.001, 0.0, 0.0, 0.0, 0.001)"
1636558248233421524, 3878, 1636512864, 763235092, base_link, 0.00360250106297, -0.0166508729812, -0.717287743232, 0.696568778962, "(0.0022347793892740914, 0.0, 0.0, 0.0, 0.0022328401639362117, 0.0, 0.0, 0.0, 0.002920370703983155)", 0.0107728082907, -0.0106524268684, -0.222272798027, "(0.001, 0.0, 0.0, 0.0, 0.001, 0.0, 0.0, 0.0, 0.001)", 0.186887668202, 0.602426352619, 0.202489779275, "(0.001, 0.0, 0.0, 0.0, 0.001, 0.0, 0.0, 0.0, 0.001)"
1636558248251673349, 3879, 1636512864, 781574964, base_link, 0.00360250106297, -0.0166508729812, -0.717287743232, 0.696568778962, "(0.0022347793892740914, 0.0, 0.0, 0.0, 0.0022328401639362117, 0.0, 0.0, 0.0, 0.002920370703983155)", 0.00870098469532, -0.00410492911772, -0.149366540639, "(0.001, 0.0, 0.0, 0.0, 0.001, 0.0, 0.0, 0.0, 0.001)", 1.13402903077, 0.45588711336, -0.391895542142, "(0.001, 0.0, 0.0, 0.0, 0.001, 0.0, 0.0, 0.0, 0.001)"
1636558248281248141, 3880, 1636512864, 802635908, base_link, 0.00374543558193, -0.0167046214277, -0.71855665435, 0.695257694545, "(0.0022347793892740914, 0.0, 0.0, 0.0, 0.0022328401639362117, 0.0, 0.0, 0.0, 0.002920370703983155)", 0.0148882701974, 0.00437160919029, -0.21875824337, "(0.001, 0.0, 0.0, 0.0, 0.001, 0.0, 0.0, 0.0, 0.001)", 0.637629113879, 0.593915519555, 0.234033398258, "(0.001, 0.0, 0.0, 0.0, 0.001, 0.0, 0.0, 0.0, 0.001)"
1636558248292705053, 3881, 1636512864, 822602033, base_link, 0.00383332677082, -0.0167332198301, -0.719191681979, 0.694599618149, "(0.0022347793892740914, 0.0, 0.0, 0.0, 0.0022328401639362117, 0.0, 0.0, 0.0, 0.002920370703983155)", 0.00964400508764, 0.00415643130915, -0.146379122709, "(0.001, 0.0, 0.0, 0.0, 0.001, 0.0, 0.0, 0.0, 0.001)", 0.715110905352, 0.761244680303, -0.423628455693, "(0.001, 0.0, 0.0, 0.0, 0.001, 0.0, 0.0, 0.0, 0.001)"
1636558248311204679, 3882, 1636512864, 841130971, base_link, 0.00386009788175, -0.0167350133469, -0.719829041857, 0.693938894623, "(0.0022347793892740914, 0.0, 0.0, 0.0, 0.0022328401639362117, 0.0, 0.0, 0.0, 0.002920370703983155)", 0.00963833554158, 0.00452322023345, -0.219654253632, "(0.001, 0.0, 0.0, 0.0, 0.001, 0.0, 0.0, 0.0, 0.001)", 0.150525652909, 0.864381343205, 0.234253535118, "(0.001, 0.0, 0.0, 0.0, 0.001, 0.0, 0.0, 0.0, 0.001)"
1636558248332052112, 3883, 1636512864, 862016916, base_link, 0.00394312442897, -0.0167522225672, -0.720453897233, 0.693289259091, "(0.0022347793892740914, 0.0, 0.0, 0.0, 0.0022328401639362117, 0.0, 0.0, 0.0, 0.002920370703983155)", 0.00756294208812, 0.00323090103133, -0.145642902416, "(0.001, 0.0, 0.0, 0.0, 0.001, 0.0, 0.0, 0.0, 0.001)", 1.02283136765, 0.430806436426, -0.366644467847, "(0.001, 0.0, 0.0, 0.0, 0.001, 0.0, 0.0, 0.0, 0.001)"
1636558248351067817, 3884, 1636512864, 880491971, base_link, 0.00394312442897, -0.0167522225672, -0.720453897233, 0.693289259091, "(0.0022347793892740914, 0.0, 0.0, 0.0, 0.0022328401639362117, 0.0, 0.0, 0.0, 0.002920370703983155)", 0.0104223749024, 0.0102466138099, -0.222409446035, "(0.001, 0.0, 0.0, 0.0, 0.001, 0.0, 0.0, 0.0, 0.001)", 0.206430733502, 0.875810195886, 0.0416383032914, "(0.001, 0.0, 0.0, 0.0, 0.001, 0.0, 0.0, 0.0, 0.001)"
1636558248372732048, 3885, 1636512864, 902729034, base_link, 0.00413621517732, -0.0167268042374, -0.721767785445, 0.691920782777, "(0.0022347793892740914, 0.0, 0.0, 0.0, 0.0022328401639362117, 0.0, 0.0, 0.0, 0.002920370703983155)", 0.00875924912727, 0.00954939988242, -0.15167209646, "(0.001, 0.0, 0.0, 0.0, 0.001, 0.0, 0.0, 0.0, 0.001)", 0.6336998231, 0.520469968762, -0.329577918184, "(0.001, 0.0, 0.0, 0.0, 0.001, 0.0, 0.0, 0.0, 0.001)"
1636558248402500721, 3886, 1636512864, 922856092, base_link, 0.00418672012414, -0.016711237739, -0.722444918601, 0.691213820388, "(0.0022347793892740914, 0.0, 0.0, 0.0, 0.0022328401639362117, 0.0, 0.0, 0.0, 0.002920370703983155)", 0.00940786008984, 0.0117422523156, -0.231316905726, "(0.001, 0.0, 0.0, 0.0, 0.001, 0.0, 0.0, 0.0, 0.001)", 0.0387174126942, 1.04262400101, -0.0840434717665, "(0.001, 0.0, 0.0, 0.0, 0.001, 0.0, 0.0, 0.0, 0.001)"
1636558248412094223, 3887, 1636512864, 941968917, base_link, 0.0042441955876, -0.0167219802878, -0.72311200891, 0.690515303777, "(0.0022347793892740914, 0.0, 0.0, 0.0, 0.0022328401639362117, 0.0, 0.0, 0.0, 0.002920370703983155)", 0.00491317481913, 0.00449671808288, -0.154750314768, "(0.001, 0.0, 0.0, 0.0, 0.001, 0.0, 0.0, 0.0, 0.001)", 0.156511327072, 0.536198689151, -0.0813831065687, "(0.001, 0.0, 0.0, 0.0, 0.001, 0.0, 0.0, 0.0, 0.001)"
1636558248430862342, 3888, 1636512864, 960870981, base_link, 0.00428717821563, -0.0167225912029, -0.723811410408, 0.689781862047, "(0.0022347793892740914, 0.0, 0.0, 0.0, 0.0022328401639362117, 0.0, 0.0, 0.0, 0.002920370703983155)", 0.00653797174611, 0.00360411946247, -0.238235228063, "(0.001, 0.0, 0.0, 0.0, 0.001, 0.0, 0.0, 0.0, 0.001)", 0.328759869864, 0.895772150339, -0.277758035463, "(0.001, 0.0, 0.0, 0.0, 0.001, 0.0, 0.0, 0.0, 0.001)"
1636558248452491522, 3889, 1636512864, 982510089, base_link, 0.0043618181563, -0.0167120395466, -0.724509144496, 0.689048751409, "(0.0022347793892740914, 0.0, 0.0, 0.0, 0.0022328401639362117, 0.0, 0.0, 0.0, 0.002920370703983155)", 0.00536537275486, 0.00550151717806, -0.160893534634, "(0.001, 0.0, 0.0, 0.0, 0.001, 0.0, 0.0, 0.0, 0.001)", 0.119810013321, 0.580753259123, 0.128837142572, "(0.001, 0.0, 0.0, 0.0, 0.001, 0.0, 0.0, 0.0, 0.001)"
1636558248471051163, 3890, 1636512865, 1032114, base_link, 0.00442415248273, -0.0166851215266, -0.725237939433, 0.688281893414, "(0.0022347793892740914, 0.0, 0.0, 0.0, 0.0022328401639362117, 0.0, 0.0, 0.0, 0.002920370703983155)", 0.00460957519897, 0.00996824963617, -0.248828697934, "(0.001, 0.0, 0.0, 0.0, 0.001, 0.0, 0.0, 0.0, 0.001)", 0.364707853832, 0.69874964777, -0.435453119886, "(0.001, 0.0, 0.0, 0.0, 0.001, 0.0, 0.0, 0.0, 0.001)"
1636558248501765138, 3891, 1636512865, 21831989, base_link, 0.00452104921501, -0.0166655387473, -0.725964537331, 0.687515316535, "(0.0022347793892740914, 0.0, 0.0, 0.0, 0.0022328401639362117, 0.0, 0.0, 0.0, 0.002920370703983155)", 0.00605990982782, 0.00936875875746, -0.16778300741, "(0.001, 0.0, 0.0, 0.0, 0.001, 0.0, 0.0, 0.0, 0.001)", -0.183401906299, 0.488223264504, 0.138621259124, "(0.001, 0.0, 0.0, 0.0, 0.001, 0.0, 0.0, 0.0, 0.001)"
1636558248511620968, 3892, 1636512865, 41606903, base_link, 0.00458973018821, -0.0166296034903, -0.726716986623, 0.686720330278, "(0.0022347793892740914, 0.0, 0.0, 0.0, 0.0022328401639362117, 0.0, 0.0, 0.0, 0.002920370703983155)", 0.00585371684353, 0.0140049225088, -0.258813496691, "(0.001, 0.0, 0.0, 0.0, 0.001, 0.0, 0.0, 0.0, 0.001)", 0.518699799784, 0.852577399563, -0.186731618074, "(0.001, 0.0, 0.0, 0.0, 0.001, 0.0, 0.0, 0.0, 0.001)"
1636558248532979483, 3893, 1636512865, 62809944, base_link, 0.00468480238635, -0.0166010726935, -0.727458157742, 0.685935190632, "(0.0022347793892740914, 0.0, 0.0, 0.0, 0.0022328401639362117, 0.0, 0.0, 0.0, 0.002920370703983155)", 0.00499961308626, 0.0105445877132, -0.172473771361, "(0.001, 0.0, 0.0, 0.0, 0.001, 0.0, 0.0, 0.0, 0.001)", -0.174534048341, 0.394987458773, 0.414294942006, "(0.001, 0.0, 0.0, 0.0, 0.001, 0.0, 0.0, 0.0, 0.001)"
1636558248551170639, 3894, 1636512865, 81075906, base_link, 0.0047539650079, -0.0165642434415, -0.728201706552, 0.685146188949, "(0.0022347793892740914, 0.0, 0.0, 0.0, 0.0022328401639362117, 0.0, 0.0, 0.0, 0.002920370703983155)", 0.00422516872117, 0.0143137238002, -0.260868590058, "(0.001, 0.0, 0.0, 0.0, 0.001, 0.0, 0.0, 0.0, 0.001)", 0.809992418518, 0.705573457856, -0.288664691604, "(0.001, 0.0, 0.0, 0.0, 0.001, 0.0, 0.0, 0.0, 0.001)"
1636558248573352391, 3895, 1636512865, 102474927, base_link, 0.00484857555471, -0.0165303317312, -0.72895000261, 0.6843501539, "(0.0022347793892740914, 0.0, 0.0, 0.0, 0.0022328401639362117, 0.0, 0.0, 0.0, 0.002920370703983155)", 0.00464613115301, 0.0114552601663, -0.173828472798, "(0.001, 0.0, 0.0, 0.0, 0.001, 0.0, 0.0, 0.0, 0.001)", -0.131878422792, 0.239580917479, 0.368408488039, "(0.001, 0.0, 0.0, 0.0, 0.001, 0.0, 0.0, 0.0, 0.001)"
1636558248601051768, 3896, 1636512865, 121445894, base_link, 0.00493603526512, -0.0165141631413, -0.729682130689, 0.683569240184, "(0.0022347793892740914, 0.0, 0.0, 0.0, 0.0022328401639362117, 0.0, 0.0, 0.0, 0.002920370703983155)", 0.00817350924011, 0.0144824910932, -0.260094055966, "(0.001, 0.0, 0.0, 0.0, 0.001, 0.0, 0.0, 0.0, 0.001)", 1.07761634741, 0.855378908867, -0.0337137026809, "(0.001, 0.0, 0.0, 0.0, 0.001, 0.0, 0.0, 0.0, 0.001)"
1636558248611505733, 3897, 1636512865, 141454935, base_link, 0.00498618867987, -0.0164863673065, -0.730425189205, 0.682775497942, "(0.0022347793892740914, 0.0, 0.0, 0.0, 0.0022328401639362117, 0.0, 0.0, 0.0, 0.002920370703983155)", 0.0032398016434, 0.00831805654798, -0.172785747369, "(0.001, 0.0, 0.0, 0.0, 0.001, 0.0, 0.0, 0.0, 0.001)", -0.23578730704, 0.411482808035, 0.582536725205, "(0.001, 0.0, 0.0, 0.0, 0.001, 0.0, 0.0, 0.0, 0.001)"
1636558248632076369, 3898, 1636512865, 162065029, base_link, 0.00506703726803, -0.0164547364205, -0.731162132691, 0.681986438649, "(0.0022347793892740914, 0.0, 0.0, 0.0, 0.0022328401639362117, 0.0, 0.0, 0.0, 0.002920370703983155)", 0.00377575969231, 0.0126266144514, -0.2600121494, "(0.001, 0.0, 0.0, 0.0, 0.001, 0.0, 0.0, 0.0, 0.001)", 0.822425568003, 0.555211194052, 0.0366813377959, "(0.001, 0.0, 0.0, 0.0, 0.001, 0.0, 0.0, 0.0, 0.001)"
1636558248651385949, 3899, 1636512865, 181363105, base_link, 0.00511727725598, -0.0164250906213, -0.731923048661, 0.681170082072, "(0.0022347793892740914, 0.0, 0.0, 0.0, 0.0022328401639362117, 0.0, 0.0, 0.0, 0.002920370703983155)", 0.00257068609564, 0.00775882387793, -0.176196889037, "(0.001, 0.0, 0.0, 0.0, 0.001, 0.0, 0.0, 0.0, 0.001)", -0.213964340506, 0.548568315609, 0.434053690022, "(0.001, 0.0, 0.0, 0.0, 0.001, 0.0, 0.0, 0.0, 0.001)"
1636558248671114279, 3900, 1636512865, 201045989, base_link, 0.00515015577319, -0.0163813578799, -0.732676338374, 0.680360573664, "(0.0022347793892740914, 0.0, 0.0, 0.0, 0.0022328401639362117, 0.0, 0.0, 0.0, 0.002920370703983155)", -0.00154160660206, 0.00892806182134, -0.265727785632, "(0.001, 0.0, 0.0, 0.0, 0.001, 0.0, 0.0, 0.0, 0.001)", 0.418874173158, 0.398964206596, 0.430172521093, "(0.001, 0.0, 0.0, 0.0, 0.001, 0.0, 0.0, 0.0, 0.001)"
1636558248698692724, 3901, 1636512865, 221506118, base_link, 0.00516125837568, -0.0163471867214, -0.733453767721, 0.679523142736, "(0.0022347793892740914, 0.0, 0.0, 0.0, 0.0022328401639362117, 0.0, 0.0, 0.0, 0.002920370703983155)", -0.00217587827656, 0.00418432535539, -0.180308072035, "(0.001, 0.0, 0.0, 0.0, 0.001, 0.0, 0.0, 0.0, 0.001)", -0.28004020114, 0.58832863051, 0.44544135802, "(0.001, 0.0, 0.0, 0.0, 0.001, 0.0, 0.0, 0.0, 0.001)"
1636558248711612439, 3902, 1636512865, 241585969, base_link, 0.00515607260659, -0.0163086222385, -0.734231175659, 0.678684038744, "(0.0022347793892740914, 0.0, 0.0, 0.0, 0.0022328401639362117, 0.0, 0.0, 0.0, 0.002920370703983155)", -0.00772312781376, 0.00276591864708, -0.272878844061, "(0.001, 0.0, 0.0, 0.0, 0.001, 0.0, 0.0, 0.0, 0.001)", -0.0427339927445, 0.738834046711, 0.403623081281, "(0.001, 0.0, 0.0, 0.0, 0.001, 0.0, 0.0, 0.0, 0.001)"
1636558248733188216, 3903, 1636512865, 261709928, base_link, 0.00514083092163, -0.0162591345152, -0.735027576232, 0.677822745695, "(0.0022347793892740914, 0.0, 0.0, 0.0, 0.0022328401639362117, 0.0, 0.0, 0.0, 0.002920370703983155)", -0.00747091034333, 0.000849942135713, -0.185814464046, "(0.001, 0.0, 0.0, 0.0, 0.001, 0.0, 0.0, 0.0, 0.001)", 0.110180948812, 0.4489721936, 0.14286452486, "(0.001, 0.0, 0.0, 0.0, 0.001, 0.0, 0.0, 0.0, 0.001)"
1636558248752186303, 3904, 1636512865, 282124996, base_link, 0.00511421602761, -0.0162080395812, -0.735816251452, 0.676967937459, "(0.0022347793892740914, 0.0, 0.0, 0.0, 0.0022328401639362117, 0.0, 0.0, 0.0, 0.002920370703983155)", -0.0130026926953, -0.000108291938987, -0.278794216548, "(0.001, 0.0, 0.0, 0.0, 0.001, 0.0, 0.0, 0.0, 0.001)", -0.182639602535, 0.792696912956, 0.368233630516, "(0.001, 0.0, 0.0, 0.0, 0.001, 0.0, 0.0, 0.0, 0.001)"
1636558248775570182, 3905, 1636512865, 305362939, base_link, 0.00503938426894, -0.016195345842, -0.736621713321, 0.67609227687, "(0.0022347793892740914, 0.0, 0.0, 0.0, 0.0022328401639362117, 0.0, 0.0, 0.0, 0.002920370703983155)", -0.0113985038576, -0.00647023773974, -0.188856651781, "(0.001, 0.0, 0.0, 0.0, 0.001, 0.0, 0.0, 0.0, 0.001)", 0.111213658993, 0.324462939319, -0.293138364998, "(0.001, 0.0, 0.0, 0.0, 0.001, 0.0, 0.0, 0.0, 0.001)"
1636558248801919587, 3906, 1636512865, 322947978, base_link, 0.00499928782116, -0.0161881523366, -0.737422815824, 0.675218884176, "(0.0029037552035413583, 0.0, 0.0, 0.0, 0.002901396151212002, 0.0, 0.0, 0.0, 0.0036009207897004375)", -0.0116217822371, -0.0100718758299, -0.283482707617, "(0.001, 0.0, 0.0, 0.0, 0.001, 0.0, 0.0, 0.0, 0.001)", -0.286681396199, 0.631228940943, 0.269663895023, "(0.001, 0.0, 0.0, 0.0, 0.001, 0.0, 0.0, 0.0, 0.001)"
1636558248812159591, 3907, 1636512865, 342071056, base_link, 0.00491407829163, -0.0161836706913, -0.738218833436, 0.674349237857, "(0.0026300700818604472, 0.0, 0.0, 0.0, 0.0026264960140472, 0.0, 0.0, 0.0, 0.003599775878103062)", -0.0109077796253, -0.011338357224, -0.189304203789, "(0.001, 0.0, 0.0, 0.0, 0.001, 0.0, 0.0, 0.0, 0.001)", 0.40541887267, 0.310033866011, -0.432301663933, "(0.001, 0.0, 0.0, 0.0, 0.001, 0.0, 0.0, 0.0, 0.001)"
1636558248831246459, 3908, 1636512865, 361253976, base_link, 0.00485479967645, -0.0162153840883, -0.739005613032, 0.673486596858, "(0.0026300700818604472, 0.0, 0.0, 0.0, 0.0026264960140472, 0.0, 0.0, 0.0, 0.003599775878103062)", -0.00962619686342, -0.0182311314548, -0.280777430889, "(0.001, 0.0, 0.0, 0.0, 0.001, 0.0, 0.0, 0.0, 0.001)", -0.0188298660408, 0.482498670241, 0.0307014665545, "(0.001, 0.0, 0.0, 0.0, 0.001, 0.0, 0.0, 0.0, 0.001)"
1636558248852124929, 3909, 1636512865, 381592988, base_link, 0.00479097316376, -0.0162497891415, -0.739782332249, 0.672632954754, "(0.0026300700818604472, 0.0, 0.0, 0.0, 0.0026264960140472, 0.0, 0.0, 0.0, 0.003599775878103062)", -0.0055308344151, -0.0140864394985, -0.186259732146, "(0.001, 0.0, 0.0, 0.0, 0.001, 0.0, 0.0, 0.0, 0.001)", 0.700149309063, 0.321865724631, -0.412362907642, "(0.001, 0.0, 0.0, 0.0, 0.001, 0.0, 0.0, 0.0, 0.001)"
1636558248871649476, 3910, 1636512865, 401591062, base_link, 0.0047138721762, -0.0163229229419, -0.740552158604, 0.671784073927, "(0.0026300700818604472, 0.0, 0.0, 0.0, 0.0026264960140472, 0.0, 0.0, 0.0, 0.003599775878103062)", -0.00365994690095, -0.0250458350591, -0.275548358662, "(0.001, 0.0, 0.0, 0.0, 0.001, 0.0, 0.0, 0.0, 0.001)", -0.137141508132, 0.334990415758, 0.0491462548703, "(0.001, 0.0, 0.0, 0.0, 0.001, 0.0, 0.0, 0.0, 0.001)"
1636558248900790734, 3911, 1636512865, 421591997, base_link, 0.00462158169786, -0.0163979925387, -0.741313511912, 0.670942638294, "(0.0026300700818604472, 0.0, 0.0, 0.0, 0.0026264960140472, 0.0, 0.0, 0.0, 0.003599775878103062)", -0.00288862047738, -0.0210706801427, -0.18268273882, "(0.001, 0.0, 0.0, 0.0, 0.001, 0.0, 0.0, 0.0, 0.001)", 0.41502853148, 0.511195487511, -0.254895062657, "(0.001, 0.0, 0.0, 0.0, 0.001, 0.0, 0.0, 0.0, 0.001)"
1636558248912239109, 3912, 1636512865, 442111015, base_link, 0.00447626436455, -0.0164991774666, -0.742103390132, 0.670067383593, "(0.0026300700818604472, 0.0, 0.0, 0.0, 0.0026264960140472, 0.0, 0.0, 0.0, 0.003599775878103062)", -0.00446577284993, -0.0397368513074, -0.277529232008, "(0.001, 0.0, 0.0, 0.0, 0.001, 0.0, 0.0, 0.0, 0.001)", -0.387561182214, 0.415660257049, 0.274654823792, "(0.001, 0.0, 0.0, 0.0, 0.001, 0.0, 0.0, 0.0, 0.001)"
1636558248932103246, 3913, 1636512865, 462101936, base_link, 0.00439176846051, -0.0165989248746, -0.742873031012, 0.669212109766, "(0.0026300700818604472, 0.0, 0.0, 0.0, 0.0026264960140472, 0.0, 0.0, 0.0, 0.003599775878103062)", -0.00105629244204, -0.0260788583461, -0.185033262729, "(0.001, 0.0, 0.0, 0.0, 0.001, 0.0, 0.0, 0.0, 0.001)", 0.508002100963, 0.277612821517, -0.0321126215361, "(0.001, 0.0, 0.0, 0.0, 0.001, 0.0, 0.0, 0.0, 0.001)"
1636558248953247432, 3914, 1636512865, 483172893, base_link, 0.0042101544206, -0.0166766757355, -0.743680803567, 0.668313568239, "(0.0026300700818604472, 0.0, 0.0, 0.0, 0.0026264960140472, 0.0, 0.0, 0.0, 0.003599775878103062)", -0.0095395768748, -0.043497776735, -0.282873774797, "(0.001, 0.0, 0.0, 0.0, 0.001, 0.0, 0.0, 0.0, 0.001)", -0.388862879654, 0.842976615638, 0.16353942323, "(0.001, 0.0, 0.0, 0.0, 0.001, 0.0, 0.0, 0.0, 0.001)"
1636558248971655098, 3915, 1636512865, 501611948, base_link, 0.0040401952354, -0.0167704512625, -0.744485572189, 0.667415658784, "(0.0026300700818604472, 0.0, 0.0, 0.0, 0.0026264960140472, 0.0, 0.0, 0.0, 0.003599775878103062)", -0.00842698756895, -0.0322977585773, -0.191449327206, "(0.001, 0.0, 0.0, 0.0, 0.001, 0.0, 0.0, 0.0, 0.001)", -0.202559755663, 0.457882510793, 0.236218747343, "(0.001, 0.0, 0.0, 0.0, 0.001, 0.0, 0.0, 0.0, 0.001)"
1636558248998494922, 3916, 1636512865, 521756887, base_link, 0.00381908822417, -0.0168594511779, -0.745329554074, 0.666472076906, "(0.0026300700818604472, 0.0, 0.0, 0.0, 0.0026264960140472, 0.0, 0.0, 0.0, 0.003599775878103062)", -0.017444376869, -0.0543292722956, -0.295922637504, "(0.001, 0.0, 0.0, 0.0, 0.001, 0.0, 0.0, 0.0, 0.001)", 0.111263861048, 0.727452350402, 0.114161907972, "(0.001, 0.0, 0.0, 0.0, 0.001, 0.0, 0.0, 0.0, 0.001)"
1636558249012136153, 3917, 1636512865, 542182922, base_link, 0.0036022152643, -0.0169491903169, -0.746166602276, 0.665533733661, "(0.0026300700818604472, 0.0, 0.0, 0.0, 0.0026264960140472, 0.0, 0.0, 0.0, 0.003599775878103062)", -0.0134137840699, -0.0381852480585, -0.199284945171, "(0.001, 0.0, 0.0, 0.0, 0.001, 0.0, 0.0, 0.0, 0.001)", -0.373782007239, 0.46801429313, 0.223583694479, "(0.001, 0.0, 0.0, 0.0, 0.001, 0.0, 0.0, 0.0, 0.001)"
1636558249031588817, 3918, 1636512865, 561501979, base_link, 0.00335845178642, -0.0170219660068, -0.7470332646, 0.664560211762, "(0.0026300700818604472, 0.0, 0.0, 0.0, 0.0026264960140472, 0.0, 0.0, 0.0, 0.003599775878103062)", -0.0251405757699, -0.060088674336, -0.306981158851, "(0.001, 0.0, 0.0, 0.0, 0.001, 0.0, 0.0, 0.0, 0.001)", 0.479982129251, 0.783424474169, -0.2893192038, "(0.001, 0.0, 0.0, 0.0, 0.001, 0.0, 0.0, 0.0, 0.001)"
1636558249052643201, 3919, 1636512865, 582591056, base_link, 0.00313115311706, -0.0170961619196, -0.74790164026, 0.663581987116, "(0.0026300700818604472, 0.0, 0.0, 0.0, 0.0026264960140472, 0.0, 0.0, 0.0, 0.003599775878103062)", -0.0168411614621, -0.0382519818056, -0.206503695377, "(0.001, 0.0, 0.0, 0.0, 0.001, 0.0, 0.0, 0.0, 0.001)", -0.222496033964, 0.399803981556, 0.190613638675, "(0.001, 0.0, 0.0, 0.0, 0.001, 0.0, 0.0, 0.0, 0.001)"
1636558249071447732, 3920, 1636512865, 601274967, base_link, 0.0028959740596, -0.0171776809051, -0.748762247688, 0.662609716991, "(0.0026300700818604472, 0.0, 0.0, 0.0, 0.0026264960140472, 0.0, 0.0, 0.0, 0.003599775878103062)", -0.0270281561909, -0.0601071294492, -0.311481716161, "(0.001, 0.0, 0.0, 0.0, 0.001, 0.0, 0.0, 0.0, 0.001)", 0.976235324721, 0.536571383745, -0.457898430459, "(0.001, 0.0, 0.0, 0.0, 0.001, 0.0, 0.0, 0.0, 0.001)"
1636558249139022688, 3921, 1636512865, 621843099, base_link, 0.00267237508006, -0.0172514175502, -0.74962773679, 0.661629430451, "(0.0026300700818604472, 0.0, 0.0, 0.0, 0.0026264960140472, 0.0, 0.0, 0.0, 0.003599775878103062)", -0.0161504909468, -0.0380286006721, -0.207522154452, "(0.001, 0.0, 0.0, 0.0, 0.001, 0.0, 0.0, 0.0, 0.001)", 0.0580373032417, 0.431293320857, 0.0959240066397, "(0.001, 0.0, 0.0, 0.0, 0.001, 0.0, 0.0, 0.0, 0.001)"
1636558249139056710, 3922, 1636512865, 642293930, base_link, 0.00247631222687, -0.0173296928679, -0.750479584667, 0.660661745995, "(0.0026300700818604472, 0.0, 0.0, 0.0, 0.0026264960140472, 0.0, 0.0, 0.0, 0.003599775878103062)", -0.0241590421179, -0.0556236110789, -0.310659858767, "(0.001, 0.0, 0.0, 0.0, 0.001, 0.0, 0.0, 0.0, 0.001)", 0.991921838628, 0.586270113722, -0.618252391742, "(0.001, 0.0, 0.0, 0.0, 0.001, 0.0, 0.0, 0.0, 0.001)"
1636558249139107850, 3923, 1636512865, 661304950, base_link, 0.00247631222687, -0.0173296928679, -0.750479584667, 0.660661745995, "(0.0026300700818604472, 0.0, 0.0, 0.0, 0.0026264960140472, 0.0, 0.0, 0.0, 0.003599775878103062)", -0.0142385707877, -0.0370873684962, -0.208980328284, "(0.001, 0.0, 0.0, 0.0, 0.001, 0.0, 0.0, 0.0, 0.001)", -0.142093466015, -0.0599193412637, 0.092584991518, "(0.001, 0.0, 0.0, 0.0, 0.001, 0.0, 0.0, 0.0, 0.001)"
1636558249151519930, 3924, 1636512865, 681442022, base_link, 0.00208871203496, -0.0175040748778, -0.752196586617, 0.658702922209, "(0.0026300700818604472, 0.0, 0.0, 0.0, 0.0026264960140472, 0.0, 0.0, 0.0, 0.003599775878103062)", -0.0167860122276, -0.0536887382932, -0.310885177878, "(0.001, 0.0, 0.0, 0.0, 0.001, 0.0, 0.0, 0.0, 0.001)", 1.42125718327, 0.629098307892, -0.0982548298119, "(0.001, 0.0, 0.0, 0.0, 0.001, 0.0, 0.0, 0.0, 0.001)"
1636558249171950154, 3925, 1636512865, 701904058, base_link, 0.0018833444505, -0.0175464702942, -0.75305860313, 0.657716743473, "(0.0026300700818604472, 0.0, 0.0, 0.0, 0.0026264960140472, 0.0, 0.0, 0.0, 0.003599775878103062)", -0.0156248345845, -0.0329457458512, -0.207481953014, "(0.001, 0.0, 0.0, 0.0, 0.001, 0.0, 0.0, 0.0, 0.001)", 0.378119748762, 0.286188140228, 0.0390144708911, "(0.001, 0.0, 0.0, 0.0, 0.001, 0.0, 0.0, 0.0, 0.001)"
1636558249203139396, 3926, 1636512865, 722621917, base_link, 0.00176716880515, -0.0175880524138, -0.753909972638, 0.656739895761, "(0.0026300700818604472, 0.0, 0.0, 0.0, 0.0026264960140472, 0.0, 0.0, 0.0, 0.003599775878103062)", -0.018478707548, -0.0407095898851, -0.310827476114, "(0.001, 0.0, 0.0, 0.0, 0.001, 0.0, 0.0, 0.0, 0.001)", 0.97004559647, 0.365985693296, 0.0259332389061, "(0.001, 0.0, 0.0, 0.0, 0.001, 0.0, 0.0, 0.0, 0.001)"
1636558249212369838, 3927, 1636512865, 742048978, base_link, 0.00159104126581, -0.0176293906493, -0.754777807085, 0.655741667965, "(0.0026300700818604472, 0.0, 0.0, 0.0, 0.0026264960140472, 0.0, 0.0, 0.0, 0.003599775878103062)", -0.0136890263319, -0.0278227903069, -0.209742449048, "(0.001, 0.0, 0.0, 0.0, 0.001, 0.0, 0.0, 0.0, 0.001)", 0.788476648876, 0.393775812012, 0.0636049092743, "(0.001, 0.0, 0.0, 0.0, 0.001, 0.0, 0.0, 0.0, 0.001)"
1636558249232223225, 3928, 1636512865, 762185096, base_link, 0.00148924514712, -0.0176379355221, -0.755629715776, 0.654759817044, "(0.0026300700818604472, 0.0, 0.0, 0.0, 0.0026264960140472, 0.0, 0.0, 0.0, 0.003599775878103062)", -0.0189790740708, -0.0326009821498, -0.312589016572, "(0.001, 0.0, 0.0, 0.0, 0.001, 0.0, 0.0, 0.0, 0.001)", 1.06674279593, 0.438989591471, 0.17642591248, "(0.001, 0.0, 0.0, 0.0, 0.001, 0.0, 0.0, 0.0, 0.001)"
1636558249251674949, 3929, 1636512865, 781619071, base_link, 0.00133951809709, -0.0176199398321, -0.756502926198, 0.653751532362, "(0.0026300700818604472, 0.0, 0.0, 0.0, 0.0026264960140472, 0.0, 0.0, 0.0, 0.003599775878103062)", -0.0169739589617, -0.0201900127973, -0.211401152441, "(0.001, 0.0, 0.0, 0.0, 0.001, 0.0, 0.0, 0.0, 0.001)", 0.95286935185, 0.56415978856, -0.113109882695, "(0.001, 0.0, 0.0, 0.0, 0.001, 0.0, 0.0, 0.0, 0.001)"
1636558249272713840, 3930, 1636512865, 802594900, base_link, 0.0012536392524, -0.0175497993703, -0.757393876335, 0.652721187814, "(0.0026300700818604472, 0.0, 0.0, 0.0, 0.0026264960140472, 0.0, 0.0, 0.0, 0.003599775878103062)", -0.0285808260021, -0.0190099649162, -0.321319891728, "(0.001, 0.0, 0.0, 0.0, 0.001, 0.0, 0.0, 0.0, 0.001)", 1.01780192584, 0.513746611615, 0.314076308561, "(0.001, 0.0, 0.0, 0.0, 0.001, 0.0, 0.0, 0.0, 0.001)"
1636558249302726474, 3931, 1636512865, 822408914, base_link, 0.00121527393235, -0.017460527464, -0.758294003591, 0.651677724959, "(0.0026300700818604472, 0.0, 0.0, 0.0, 0.0026264960140472, 0.0, 0.0, 0.0, 0.003599775878103062)", -0.02768120258, -0.00544578726322, -0.328962307054, "(0.001, 0.0, 0.0, 0.0, 0.001, 0.0, 0.0, 0.0, 0.001)", 1.33025760825, 0.685476795776, -0.241754004543, "(0.001, 0.0, 0.0, 0.0, 0.001, 0.0, 0.0, 0.0, 0.001)"
1636558249311691867, 3932, 1636512865, 841720104, base_link, 0.00112975802236, -0.017343780185, -0.759220517542, 0.650601354655, "(0.0026300700818604472, 0.0, 0.0, 0.0, 0.0026264960140472, 0.0, 0.0, 0.0, 0.003599775878103062)", -0.0229696149194, -0.00133557280764, -0.224185007324, "(0.001, 0.0, 0.0, 0.0, 0.001, 0.0, 0.0, 0.0, 0.001)", 0.0196873215952, 0.573461204326, 0.263745612087, "(0.001, 0.0, 0.0, 0.0, 0.001, 0.0, 0.0, 0.0, 0.001)"
1636558249331189137, 3933, 1636512865, 861044883, base_link, 0.00112975802236, -0.017343780185, -0.759220517542, 0.650601354655, "(0.0026300700818604472, 0.0, 0.0, 0.0, 0.0026264960140472, 0.0, 0.0, 0.0, 0.003599775878103062)", -0.0250054039943, 0.00187209893985, -0.227870661938, "(0.001, 0.0, 0.0, 0.0, 0.001, 0.0, 0.0, 0.0, 0.001)", 0.882814304155, 0.46027287651, -0.31081346974, "(0.001, 0.0, 0.0, 0.0, 0.001, 0.0, 0.0, 0.0, 0.001)"
1636558249352570576, 3934, 1636512865, 882447957, base_link, 0.00098063033123, -0.0170644489834, -0.761127597384, 0.648376914646, "(0.0026300700818604472, 0.0, 0.0, 0.0, 0.0026264960140472, 0.0, 0.0, 0.0, 0.003599775878103062)", -0.0399209221053, 0.00206673781813, -0.350275730755, "(0.001, 0.0, 0.0, 0.0, 0.001, 0.0, 0.0, 0.0, 0.001)", -0.292243576562, 0.743785522531, 0.0271031352123, "(0.001, 0.0, 0.0, 0.0, 0.001, 0.0, 0.0, 0.0, 0.001)"
1636558249371403541, 3935, 1636512865, 901352882, base_link, 0.000904302736235, -0.0169359447084, -0.76209027187, 0.647248618025, "(0.0026300700818604472, 0.0, 0.0, 0.0, 0.0026264960140472, 0.0, 0.0, 0.0, 0.003599775878103062)", -0.0265694342926, -8.21699934927e-05, -0.237133181802, "(0.001, 0.0, 0.0, 0.0, 0.001, 0.0, 0.0, 0.0, 0.001)", 0.696592875199, 0.54411840523, -0.258000346993, "(0.001, 0.0, 0.0, 0.0, 0.001, 0.0, 0.0, 0.0, 0.001)"
1636558249398449382, 3936, 1636512865, 921377897, base_link, 0.000785309720674, -0.0168047431147, -0.763082486211, 0.646082117951, "(0.0026300700818604472, 0.0, 0.0, 0.0, 0.0026264960140472, 0.0, 0.0, 0.0, 0.003599775878103062)", -0.0438496019645, -0.00291421740749, -0.36147854524, "(0.001, 0.0, 0.0, 0.0, 0.001, 0.0, 0.0, 0.0, 0.001)", 0.188828243819, 0.829915436563, -0.305705237376, "(0.001, 0.0, 0.0, 0.0, 0.001, 0.0, 0.0, 0.0, 0.001)"
1636558249412347076, 3937, 1636512865, 942296028, base_link, 0.000688825626839, -0.01667041808, -0.764053665308, 0.64493691103, "(0.0026300700818604472, 0.0, 0.0, 0.0, 0.0026264960140472, 0.0, 0.0, 0.0, 0.003599775878103062)", -0.0291837327523, -0.00228133377912, -0.240713387506, "(0.001, 0.0, 0.0, 0.0, 0.001, 0.0, 0.0, 0.0, 0.001)", 0.488988296053, 0.559770582814, -0.157444570722, "(0.001, 0.0, 0.0, 0.0, 0.001, 0.0, 0.0, 0.0, 0.001)"
1636558249431327869, 3938, 1636512865, 961103916, base_link, 0.000578750362152, -0.0165196344152, -0.76504299636, 0.643767023424, "(0.0026300700818604472, 0.0, 0.0, 0.0, 0.0026264960140472, 0.0, 0.0, 0.0, 0.003599775878103062)", -0.0464840624998, -0.00306782826235, -0.364672643962, "(0.001, 0.0, 0.0, 0.0, 0.001, 0.0, 0.0, 0.0, 0.001)", 0.831203996272, 0.53626891751, -0.387727071588, "(0.001, 0.0, 0.0, 0.0, 0.001, 0.0, 0.0, 0.0, 0.001)"
1636558249452378828, 3939, 1636512865, 982384920, base_link, 0.000521086228159, -0.0163892261817, -0.766010146136, 0.642619310129, "(0.0026300700818604472, 0.0, 0.0, 0.0, 0.0026264960140472, 0.0, 0.0, 0.0, 0.003599775878103062)", -0.0269423764095, 0.00139638812783, -0.24107805503, "(0.001, 0.0, 0.0, 0.0, 0.001, 0.0, 0.0, 0.0, 0.001)", 0.437760898899, 0.216316977879, -0.0626357666214, "(0.001, 0.0, 0.0, 0.0, 0.001, 0.0, 0.0, 0.0, 0.001)"
1636558249471012957, 3940, 1636512866, 1063108, base_link, 0.000471150981415, -0.0162353845967, -0.766984919506, 0.641459526045, "(0.0026300700818604472, 0.0, 0.0, 0.0, 0.0026264960140472, 0.0, 0.0, 0.0, 0.003599775878103062)", -0.0406116606248, 0.00526232562232, -0.363152804584, "(0.001, 0.0, 0.0, 0.0, 0.001, 0.0, 0.0, 0.0, 0.001)", 1.26784482185, 0.679205537828, -0.489933293363, "(0.001, 0.0, 0.0, 0.0, 0.001, 0.0, 0.0, 0.0, 0.001)"
1636558249503698248, 3941, 1636512866, 21692991, base_link, 0.000435592153199, -0.0160659527667, -0.76794417757, 0.640315106458, "(0.0026300700818604472, 0.0, 0.0, 0.0, 0.0026264960140472, 0.0, 0.0, 0.0, 0.003599775878103062)", -0.0257288844176, 0.00819489412533, -0.239471215747, "(0.001, 0.0, 0.0, 0.0, 0.001, 0.0, 0.0, 0.0, 0.001)", 0.169095526835, 0.363288527035, 0.143209639018, "(0.001, 0.0, 0.0, 0.0, 0.001, 0.0, 0.0, 0.0, 0.001)"
1636558249511382759, 3942, 1636512866, 41440010, base_link, 0.000440096659468, -0.0159461226187, -0.768898826422, 0.639171434136, "(0.0026300700818604472, 0.0, 0.0, 0.0, 0.0026264960140472, 0.0, 0.0, 0.0, 0.003599775878103062)", -0.0327695608116, 0.0127674073365, -0.358861767373, "(0.001, 0.0, 0.0, 0.0, 0.001, 0.0, 0.0, 0.0, 0.001)", 1.2078020265, 0.128863744405, -0.517195534379, "(0.001, 0.0, 0.0, 0.0, 0.001, 0.0, 0.0, 0.0, 0.001)"
1636558249533017063, 3943, 1636512866, 62922000, base_link, 0.00042458233124, -0.0158476459373, -0.769843277396, 0.638036049214, "(0.0026300700818604472, 0.0, 0.0, 0.0, 0.0026264960140472, 0.0, 0.0, 0.0, 0.003599775878103062)", -0.0169357917252, 0.00779329003919, -0.23654679622, "(0.001, 0.0, 0.0, 0.0, 0.001, 0.0, 0.0, 0.0, 0.001)", -0.108441559162, 0.0684993800271, 0.095131431641, "(0.001, 0.0, 0.0, 0.0, 0.001, 0.0, 0.0, 0.0, 0.001)"
1636558249550990477, 3944, 1636512866, 80825090, base_link, 0.000434404637615, -0.0157903038059, -0.770783163056, 0.636901713884, "(0.0026300700818604472, 0.0, 0.0, 0.0, 0.0026264960140472, 0.0, 0.0, 0.0, 0.003599775878103062)", -0.018734297542, 0.00734818898191, -0.354995280648, "(0.001, 0.0, 0.0, 0.0, 0.001, 0.0, 0.0, 0.0, 0.001)", 0.693501509914, 0.424556827915, -0.385129623518, "(0.001, 0.0, 0.0, 0.0, 0.001, 0.0, 0.0, 0.0, 0.001)"
1636558249572877718, 3945, 1636512866, 102680921, base_link, 0.000385901637233, -0.0157517797047, -0.771742174778, 0.635740315054, "(0.0026300700818604472, 0.0, 0.0, 0.0, 0.0026264960140472, 0.0, 0.0, 0.0, 0.003599775878103062)", -0.0115195312554, -0.00124908333611, -0.238498193706, "(0.001, 0.0, 0.0, 0.0, 0.001, 0.0, 0.0, 0.0, 0.001)", -0.420452842058, 0.297404349804, 0.211462092293, "(0.001, 0.0, 0.0, 0.0, 0.001, 0.0, 0.0, 0.0, 0.001)"
1636558249598665082, 3946, 1636512866, 122065067, base_link, 0.000323769810069, -0.0157834403282, -0.772694066506, 0.634582270294, "(0.0026300700818604472, 0.0, 0.0, 0.0, 0.0026264960140472, 0.0, 0.0, 0.0, 0.003599775878103062)", -0.0122281601277, -0.0139311110541, -0.359395442644, "(0.001, 0.0, 0.0, 0.0, 0.001, 0.0, 0.0, 0.0, 0.001)", 0.29600933864, 0.289766687378, -0.241197354765, "(0.001, 0.0, 0.0, 0.0, 0.001, 0.0, 0.0, 0.0, 0.001)"
1636558249612604414, 3947, 1636512866, 142574071, base_link, 0.000248277419247, -0.0158275236204, -0.773667814687, 0.633393669349, "(0.0026300700818604472, 0.0, 0.0, 0.0, 0.0026264960140472, 0.0, 0.0, 0.0, 0.003599775878103062)", -0.0053304097666, -0.0137839796401, -0.242952270046, "(0.001, 0.0, 0.0, 0.0, 0.001, 0.0, 0.0, 0.0, 0.001)", -0.0317420043978, 0.032855338095, -0.179009524084, "(0.001, 0.0, 0.0, 0.0, 0.001, 0.0, 0.0, 0.0, 0.001)"
1636558249631015565, 3948, 1636512866, 161068916, base_link, 0.000202100613795, -0.0158944263581, -0.774635203401, 0.632208532066, "(0.0026300700818604472, 0.0, 0.0, 0.0, 0.0026264960140472, 0.0, 0.0, 0.0, 0.003599775878103062)", -0.00162516763806, -0.0230918632209, -0.365959324661, "(0.001, 0.0, 0.0, 0.0, 0.001, 0.0, 0.0, 0.0, 0.001)", 0.113600066056, 0.394397782713, 0.0215366170495, "(0.001, 0.0, 0.0, 0.0, 0.001, 0.0, 0.0, 0.0, 0.001)"
1636558249651591555, 3949, 1636512866, 181582927, base_link, 0.000107383937484, -0.0159585452842, -0.7756348836, 0.630980063587, "(0.0026300700818604472, 0.0, 0.0, 0.0, 0.0026264960140472, 0.0, 0.0, 0.0, 0.003599775878103062)", -0.00283445016409, -0.019905550178, -0.249825258876, "(0.001, 0.0, 0.0, 0.0, 0.001, 0.0, 0.0, 0.0, 0.001)", 0.195201557585, 0.229487645351, -0.159123107049, "(0.001, 0.0, 0.0, 0.0, 0.001, 0.0, 0.0, 0.0, 0.001)"
1636558249671161891, 3950, 1636512866, 201179027, base_link, 9.37589104073e-05, -0.0160060603602, -0.776654022133, 0.62972400871, "(0.0026300700818604472, 0.0, 0.0, 0.0, 0.0026264960140472, 0.0, 0.0, 0.0, 0.003599775878103062)", -0.000231845174195, -0.0220706394554, -0.381585229682, "(0.001, 0.0, 0.0, 0.0, 0.001, 0.0, 0.0, 0.0, 0.001)", 0.450155180926, 0.28132409684, 0.198402658015, "(0.001, 0.0, 0.0, 0.0, 0.001, 0.0, 0.0, 0.0, 0.001)"
1636558249705887555, 3951, 1636512866, 221364021, base_link, 9.37589104073e-05, -0.0160060603602, -0.776654022133, 0.62972400871, "(0.0026300700818604472, 0.0, 0.0, 0.0, 0.0026264960140472, 0.0, 0.0, 0.0, 0.003599775878103062)", -0.00152854552537, -0.0131013702609, -0.262335881704, "(0.001, 0.0, 0.0, 0.0, 0.001, 0.0, 0.0, 0.0, 0.001)", 0.561178199004, 0.485033682439, -0.150085248826, "(0.001, 0.0, 0.0, 0.0, 0.001, 0.0, 0.0, 0.0, 0.001)"
1636558249711462304, 3952, 1636512866, 241369962, base_link, 3.21776281771e-05, -0.0160392627389, -0.778766562616, 0.627108748119, "(0.0026300700818604472, 0.0, 0.0, 0.0, 0.0026264960140472, 0.0, 0.0, 0.0, 0.003599775878103062)", -0.00542950572862, -0.0127858293803, -0.400855753253, "(0.001, 0.0, 0.0, 0.0, 0.001, 0.0, 0.0, 0.0, 0.001)", 0.00443051135969, 0.543954798969, 0.362305732242, "(0.001, 0.0, 0.0, 0.0, 0.001, 0.0, 0.0, 0.0, 0.001)"
1636558249732538444, 3953, 1636512866, 262403964, base_link, -3.08682471302e-05, -0.0160566210645, -0.779838816823, 0.625774403234, "(0.0026300700818604472, 0.0, 0.0, 0.0, 0.0026264960140472, 0.0, 0.0, 0.0, 0.003599775878103062)", -0.00622738084605, -0.0116618319018, -0.272656418224, "(0.001, 0.0, 0.0, 0.0, 0.001, 0.0, 0.0, 0.0, 0.001)", 0.578434224468, 0.441264010193, -0.12741803798, "(0.001, 0.0, 0.0, 0.0, 0.001, 0.0, 0.0, 0.0, 0.001)"
1636558249752175636, 3954, 1636512866, 282166004, base_link, -0.000153571285513, -0.0160948525736, -0.780918539012, 0.624425469983, "(0.0026300700818604472, 0.0, 0.0, 0.0, 0.0026264960140472, 0.0, 0.0, 0.0, 0.003599775878103062)", -0.0119824751622, -0.0254977728478, -0.411013313588, "(0.001, 0.0, 0.0, 0.0, 0.001, 0.0, 0.0, 0.0, 0.001)", -0.331952918447, 0.45728827214, 0.198227576076, "(0.001, 0.0, 0.0, 0.0, 0.001, 0.0, 0.0, 0.0, 0.001)"
1636558249786874206, 3955, 1636512866, 305355072, base_link, -0.000250738402666, -0.0161467808641, -0.781989770533, 0.623082031019, "(0.0026300700818604472, 0.0, 0.0, 0.0, 0.0026264960140472, 0.0, 0.0, 0.0, 0.003599775878103062)", -0.00730537975848, -0.0210820074279, -0.275413889753, "(0.001, 0.0, 0.0, 0.0, 0.001, 0.0, 0.0, 0.0, 0.001)", 0.878395301503, 0.364971145352, -0.271878336906, "(0.001, 0.0, 0.0, 0.0, 0.001, 0.0, 0.0, 0.0, 0.001)"
1636558249793238307, 3956, 1636512866, 323163986, base_link, -0.000382662145656, -0.0161940984239, -0.783067904234, 0.621725230391, "(0.0032816467288033224, 0.0, 0.0, 0.0, 0.003276325695479587, 0.0, 0.0, 0.0, 0.004287003196232542)", -0.0128145668456, -0.0344788052031, -0.413569956111, "(0.001, 0.0, 0.0, 0.0, 0.001, 0.0, 0.0, 0.0, 0.001)", 0.460451585918, 0.595461867633, -0.0199925648399, "(0.001, 0.0, 0.0, 0.0, 0.001, 0.0, 0.0, 0.0, 0.001)"
1636558249812128706, 3957, 1636512866, 342070102, base_link, -0.000451919852553, -0.0162508072506, -0.784119065191, 0.620397452152, "(0.0029092810692191856, 0.0, 0.0, 0.0, 0.002902817810018346, 0.0, 0.0, 0.0, 0.004284309831344368)", -0.00595017728255, -0.0207895187553, -0.273231825363, "(0.001, 0.0, 0.0, 0.0, 0.001, 0.0, 0.0, 0.0, 0.001)", 1.10268118212, 0.233418418679, -0.234231329514, "(0.001, 0.0, 0.0, 0.0, 0.001, 0.0, 0.0, 0.0, 0.001)"
1636558249831272877, 3958, 1636512866, 361180067, base_link, -0.0005321966339, -0.016295265308, -0.785168450522, 0.619067593563, "(0.0029092810692191856, 0.0, 0.0, 0.0, 0.002902817810018346, 0.0, 0.0, 0.0, 0.004284309831344368)", -0.00725884003107, -0.0284016766598, -0.407483917607, "(0.001, 0.0, 0.0, 0.0, 0.001, 0.0, 0.0, 0.0, 0.001)", 0.937187711355, 0.475025407069, -0.157040076966, "(0.001, 0.0, 0.0, 0.0, 0.001, 0.0, 0.0, 0.0, 0.001)"
1636558249851954345, 3959, 1636512866, 381836891, base_link, -0.00056898202966, -0.0163463112152, -0.786193573262, 0.617763821966, "(0.0029092810692191856, 0.0, 0.0, 0.0, 0.002902817810018346, 0.0, 0.0, 0.0, 0.004284309831344368)", -0.00235464769493, -0.0158276415318, -0.267352397867, "(0.001, 0.0, 0.0, 0.0, 0.001, 0.0, 0.0, 0.0, 0.001)", 0.776213708207, 0.213751222327, -0.160298591086, "(0.001, 0.0, 0.0, 0.0, 0.001, 0.0, 0.0, 0.0, 0.001)"
1636558249871697968, 3960, 1636512866, 401628017, base_link, -0.000573835594963, -0.0163865268588, -0.787227623309, 0.616444499975, "(0.0029092810692191856, 0.0, 0.0, 0.0, 0.002902817810018346, 0.0, 0.0, 0.0, 0.004284309831344368)", -0.000346226117873, -0.0177491937844, -0.401921077152, "(0.001, 0.0, 0.0, 0.0, 0.001, 0.0, 0.0, 0.0, 0.001)", 1.37830086622, 0.527403608154, -0.313037935342, "(0.001, 0.0, 0.0, 0.0, 0.001, 0.0, 0.0, 0.0, 0.001)"
1636558249902416003, 3961, 1636512866, 421575069, base_link, -0.000573835594963, -0.0163865268588, -0.787227623309, 0.616444499975, "(0.0029092810692191856, 0.0, 0.0, 0.0, 0.002902817810018346, 0.0, 0.0, 0.0, 0.004284309831344368)", -0.000995018251923, -0.00858861431471, -0.265702430254, "(0.001, 0.0, 0.0, 0.0, 0.001, 0.0, 0.0, 0.0, 0.001)", 0.458087331993, 0.287039584926, 0.188810113399, "(0.001, 0.0, 0.0, 0.0, 0.001, 0.0, 0.0, 0.0, 0.001)"
1636558249911208676, 3962, 1636512866, 441073894, base_link, -0.000596006380007, -0.0164396088102, -0.789263361149, 0.613834449006, "(0.0029092810692191856, 0.0, 0.0, 0.0, 0.002902817810018346, 0.0, 0.0, 0.0, 0.004284309831344368)", 0.000812471785251, -0.0124861379505, -0.397965330814, "(0.001, 0.0, 0.0, 0.0, 0.001, 0.0, 0.0, 0.0, 0.001)", 1.25506277635, 0.34167099814, -0.322297137952, "(0.001, 0.0, 0.0, 0.0, 0.001, 0.0, 0.0, 0.0, 0.001)"
1636558249934325723, 3963, 1636512866, 462677955, base_link, -0.000608487771152, -0.0164627191646, -0.790288227481, 0.612513776274, "(0.0029092810692191856, 0.0, 0.0, 0.0, 0.002902817810018346, 0.0, 0.0, 0.0, 0.004284309831344368)", 0.00026833883738, -0.0072800280366, -0.265867087584, "(0.001, 0.0, 0.0, 0.0, 0.001, 0.0, 0.0, 0.0, 0.001)", 0.222186514215, 0.406714206647, 0.34397341042, "(0.001, 0.0, 0.0, 0.0, 0.001, 0.0, 0.0, 0.0, 0.001)"
