time, .header.seq, .header.stamp.secs, .header.stamp.nsecs, .header.frame_id, .orientation.x, .orientation.y, .orientation.z, .orientation.w, .orientation_covariance, .angular_velocity.x, .angular_velocity.y, .angular_velocity.z, .angular_velocity_covariance, .linear_acceleration.x, .linear_acceleration.y, .linear_acceleration.z, .linear_acceleration_covariance
1637149068847839507, 6916, 1636512982, 920470952, base_link, -0.00619573494859, -0.0158151297482, -0.999685218561, 0.018465056983, "(0.00023315803464598554, 0.0, 0.0, 0.0, 0.00023050643293099585, 0.0, 0.0, 0.0, 0.011525774010724632)", -0.000337188377381, -0.000197514936255, -0.000198054960288, "(0.001, 0.0, 0.0, 0.0, 0.001, 0.0, 0.0, 0.0, 0.001)", 0.0507360581814, -0.0228204989721, 0.115102364696, "(0.001, 0.0, 0.0, 0.0, 0.001, 0.0, 0.0, 0.0, 0.001)"
1637149068865318705, 6917, 1636512982, 941602945, base_link, -0.00622046320821, -0.0158240569758, -0.999684983811, 0.0184618038357, "(0.00023315803464598554, 0.0, 0.0, 0.0, 0.00023050643293099585, 0.0, 0.0, 0.0, 0.011525774010724632)", 0.000622674291813, -0.00184682734544, -8.76285111665e-05, "(0.001, 0.0, 0.0, 0.0, 0.001, 0.0, 0.0, 0.0, 0.001)", -0.112634520183, -0.0426599705628, -0.116207826307, "(0.001, 0.0, 0.0, 0.0, 0.001, 0.0, 0.0, 0.0, 0.001)"
1637149068885188528, 6918, 1636512982, 961638927, base_link, -0.00620399459482, -0.0158196426089, -0.999685158535, 0.0184616673887, "(0.00023315803464598554, 0.0, 0.0, 0.0, 0.00023050643293099585, 0.0, 0.0, 0.0, 0.011525774010724632)", 9.65547535571e-05, -0.000387445846946, -0.000290560926806, "(0.001, 0.0, 0.0, 0.0, 0.001, 0.0, 0.0, 0.0, 0.001)", 0.236857317828, 0.0787686224809, 0.107053104557, "(0.001, 0.0, 0.0, 0.0, 0.001, 0.0, 0.0, 0.0, 0.001)"
1637149068907377530, 6919, 1636512982, 981672048, base_link, -0.00620671556254, -0.0158236656594, -0.99968521132, 0.0184544453858, "(0.00023315803464598554, 0.0, 0.0, 0.0, 0.00023050643293099585, 0.0, 0.0, 0.0, 0.011525774010724632)", 0.000151407658272, 0.000399799438147, -0.000669761032433, "(0.001, 0.0, 0.0, 0.0, 0.001, 0.0, 0.0, 0.0, 0.001)", -0.149839512353, -0.047700632145, -0.140611987768, "(0.001, 0.0, 0.0, 0.0, 0.001, 0.0, 0.0, 0.0, 0.001)"
1637149068924532338, 6920, 1636512983, 1089096, base_link, -0.0062013938872, -0.0158205336237, -0.999685214428, 0.0184587508987, "(0.00023315803464598554, 0.0, 0.0, 0.0, 0.00023050643293099585, 0.0, 0.0, 0.0, 0.011525774010724632)", -5.85962107032e-05, -0.000197727616889, -0.000140950024895, "(0.001, 0.0, 0.0, 0.0, 0.001, 0.0, 0.0, 0.0, 0.001)", 0.185291165817, 0.0914994807466, 0.185668893412, "(0.001, 0.0, 0.0, 0.0, 0.001, 0.0, 0.0, 0.0, 0.001)"
1637149068945278318, 6921, 1636512983, 21747112, base_link, -0.00620342691592, -0.0158132873887, -0.99968547214, 0.0184503178394, "(0.00023315803464598554, 0.0, 0.0, 0.0, 0.00023050643293099585, 0.0, 0.0, 0.0, 0.011525774010724632)", -0.000826051764392, 0.000439411421706, -0.000715539320517, "(0.001, 0.0, 0.0, 0.0, 0.001, 0.0, 0.0, 0.0, 0.001)", -0.0758619980804, -0.0851041348485, -0.122156403059, "(0.001, 0.0, 0.0, 0.0, 0.001, 0.0, 0.0, 0.0, 0.001)"
1637149068964312355, 6922, 1636512983, 40740013, base_link, -0.00619110946103, -0.0158178545297, -0.999685388827, 0.0184550537356, "(0.00023315803464598554, 0.0, 0.0, 0.0, 0.00023050643293099585, 0.0, 0.0, 0.0, 0.011525774010724632)", -0.000174120793533, 0.0010881706422, -0.000131429746962, "(0.001, 0.0, 0.0, 0.0, 0.001, 0.0, 0.0, 0.0, 0.001)", 0.0785303000986, -0.0632210728235, 0.0872795847296, "(0.001, 0.0, 0.0, 0.0, 0.001, 0.0, 0.0, 0.0, 0.001)"
1637149068986181840, 6923, 1636512983, 62678098, base_link, -0.00620230669694, -0.0158187305637, -0.999685323319, 0.0184540915468, "(0.00023315803464598554, 0.0, 0.0, 0.0, 0.00023050643293099585, 0.0, 0.0, 0.0, 0.011525774010724632)", 0.000349183510552, -0.000289291989004, 0.000122668486397, "(0.001, 0.0, 0.0, 0.0, 0.001, 0.0, 0.0, 0.0, 0.001)", -0.0948813758273, 0.0351721988091, -0.103582636479, "(0.001, 0.0, 0.0, 0.0, 0.001, 0.0, 0.0, 0.0, 0.001)"
1637149069005388431, 6924, 1636512983, 81296920, base_link, -0.00618442564036, -0.0158175724027, -0.999685284421, 0.0184631902954, "(0.00023315803464598554, 0.0, 0.0, 0.0, 0.00023050643293099585, 0.0, 0.0, 0.0, 0.011525774010724632)", -0.000313735822566, 0.00101815811977, 0.00105723479845, "(0.001, 0.0, 0.0, 0.0, 0.001, 0.0, 0.0, 0.0, 0.001)", 0.182548209078, 0.0332248233325, 0.124011973314, "(0.001, 0.0, 0.0, 0.0, 0.001, 0.0, 0.0, 0.0, 0.001)"
1637149069024803343, 6925, 1636512983, 101341962, base_link, -0.00619852629592, -0.0158227951398, -0.999685126322, 0.0184625468346, "(0.00023315803464598554, 0.0, 0.0, 0.0, 0.00023050643293099585, 0.0, 0.0, 0.0, 0.011525774010724632)", 0.000328788220161, -0.000299628256489, 0.000393676918523, "(0.001, 0.0, 0.0, 0.0, 0.001, 0.0, 0.0, 0.0, 0.001)", -0.257247454898, -0.145105125563, -0.148098567916, "(0.001, 0.0, 0.0, 0.0, 0.001, 0.0, 0.0, 0.0, 0.001)"
1637149069045264038, 6926, 1636512983, 121753931, base_link, -0.00617780088787, -0.0158303440806, -0.999685126384, 0.0184630189528, "(0.00023315803464598554, 0.0, 0.0, 0.0, 0.00023050643293099585, 0.0, 0.0, 0.0, 0.011525774010724632)", 0.0016389495028, 0.000876373079931, 0.000299277835063, "(0.001, 0.0, 0.0, 0.0, 0.001, 0.0, 0.0, 0.0, 0.001)", 0.246348625253, 0.0658658820669, 0.127900066772, "(0.001, 0.0, 0.0, 0.0, 0.001, 0.0, 0.0, 0.0, 0.001)"
1637149069064928196, 6927, 1636512983, 141557931, base_link, -0.00618549566945, -0.0158213732103, -0.999685240753, 0.0184619395757, "(0.00023315803464598554, 0.0, 0.0, 0.0, 0.00023050643293099585, 0.0, 0.0, 0.0, 0.011525774010724632)", -0.000794641761999, 0.000777312229722, -0.000172631081094, "(0.001, 0.0, 0.0, 0.0, 0.001, 0.0, 0.0, 0.0, 0.001)", -0.276596948643, 0.0539698393895, -0.138882323682, "(0.001, 0.0, 0.0, 0.0, 0.001, 0.0, 0.0, 0.0, 0.001)"
1637149069084492357, 6928, 1636512983, 160975933, base_link, -0.00618508829866, -0.0158231758393, -0.999685121142, 0.018467007239, "(0.00023315803464598554, 0.0, 0.0, 0.0, 0.00023050643293099585, 0.0, 0.0, 0.0, 0.011525774010724632)", 9.5664682688e-06, -0.000906412033773, 0.00043354679189, "(0.001, 0.0, 0.0, 0.0, 0.001, 0.0, 0.0, 0.0, 0.001)", 0.135389504919, -0.0454392269293, 0.13193770455, "(0.001, 0.0, 0.0, 0.0, 0.001, 0.0, 0.0, 0.0, 0.001)"
1637149069105632854, 6929, 1636512983, 181957006, base_link, -0.00618355407307, -0.0158209193186, -0.999685210822, 0.0184645994771, "(0.00023315803464598554, 0.0, 0.0, 0.0, 0.00023050643293099585, 0.0, 0.0, 0.0, 0.011525774010724632)", -0.000432417308531, 0.000473494201759, 0.000158399332297, "(0.001, 0.0, 0.0, 0.0, 0.001, 0.0, 0.0, 0.0, 0.001)", -0.18165303749, -0.0979116174544, -0.160092345866, "(0.001, 0.0, 0.0, 0.0, 0.001, 0.0, 0.0, 0.0, 0.001)"
1637149069124560566, 6930, 1636512983, 200948953, base_link, -0.00618610294464, -0.0158328140167, -0.999685076778, 0.0184608070961, "(0.00023315803464598554, 0.0, 0.0, 0.0, 0.00023050643293099585, 0.0, 0.0, 0.0, 0.011525774010724632)", 0.00127657488553, -0.000848327400873, -0.000745157678368, "(0.001, 0.0, 0.0, 0.0, 0.001, 0.0, 0.0, 0.0, 0.001)", 0.0514375463983, 0.0724423914254, 0.134759420075, "(0.001, 0.0, 0.0, 0.0, 0.001, 0.0, 0.0, 0.0, 0.001)"
1637149069144660913, 6931, 1636512983, 221137046, base_link, -0.00619861007369, -0.0158287907851, -0.999685151325, 0.018456024376, "(0.00023315803464598554, 0.0, 0.0, 0.0, 0.00023050643293099585, 0.0, 0.0, 0.0, 0.011525774010724632)", -5.54725897383e-05, -0.00119215824716, -0.000373285205902, "(0.001, 0.0, 0.0, 0.0, 0.001, 0.0, 0.0, 0.0, 0.001)", -0.176466204995, 0.0612456959414, -0.101440813144, "(0.001, 0.0, 0.0, 0.0, 0.001, 0.0, 0.0, 0.0, 0.001)"
1637149069164583264, 6932, 1636512983, 241080999, base_link, -0.00618183769029, -0.0158265894479, -0.999685261232, 0.0184575844667, "(0.00023315803464598554, 0.0, 0.0, 0.0, 0.00023050643293099585, 0.0, 0.0, 0.0, 0.011525774010724632)", 1.87661383823e-05, 0.000694608004776, -0.000459957198482, "(0.001, 0.0, 0.0, 0.0, 0.001, 0.0, 0.0, 0.0, 0.001)", 0.228160841553, 0.0163075728028, 0.153620425327, "(0.001, 0.0, 0.0, 0.0, 0.001, 0.0, 0.0, 0.0, 0.001)"
1637149069184741362, 6933, 1636512983, 261257886, base_link, -0.00620188760206, -0.0158275851194, -0.999685072044, 0.0184602511488, "(0.00023315803464598554, 0.0, 0.0, 0.0, 0.00023050643293099585, 0.0, 0.0, 0.0, 0.011525774010724632)", -0.000338361559948, -0.000878266469466, 0.000298107754003, "(0.001, 0.0, 0.0, 0.0, 0.001, 0.0, 0.0, 0.0, 0.001)", -0.269212278211, -0.0430638079965, -0.134055213117, "(0.001, 0.0, 0.0, 0.0, 0.001, 0.0, 0.0, 0.0, 0.001)"
1637149069204358202, 6934, 1636512983, 280652999, base_link, -0.0061917079784, -0.0158248429758, -0.999685178274, 0.0184602664209, "(0.00023315803464598554, 0.0, 0.0, 0.0, 0.00023050643293099585, 0.0, 0.0, 0.0, 0.011525774010724632)", 0.000229171183107, -0.00111634255415, 8.22996198802e-05, "(0.001, 0.0, 0.0, 0.0, 0.001, 0.0, 0.0, 0.0, 0.001)", 0.345960609301, 0.0408723238345, 0.164712358976, "(0.001, 0.0, 0.0, 0.0, 0.001, 0.0, 0.0, 0.0, 0.001)"
1637149069228358379, 6935, 1636512983, 304857015, base_link, -0.00619689845622, -0.0158389270594, -0.999684862884, 0.0184635251309, "(0.00023315803464598554, 0.0, 0.0, 0.0, 0.00023050643293099585, 0.0, 0.0, 0.0, 0.011525774010724632)", 0.00030766433389, 0.000272608126331, 0.000478378723611, "(0.001, 0.0, 0.0, 0.0, 0.001, 0.0, 0.0, 0.0, 0.001)", -0.289043726513, -0.0208856190851, -0.145823051117, "(0.001, 0.0, 0.0, 0.0, 0.001, 0.0, 0.0, 0.0, 0.001)"
1637149069248366476, 6936, 1636512983, 324760913, base_link, -0.00620677215334, -0.0158299180724, -0.999684897013, 0.0184660866874, "(0.0005451372753274009, 0.0, 0.0, 0.0, 0.000542459799642795, 0.0, 0.0, 0.0, 0.011866874482351852)", -0.000188541282881, -0.00207527460837, 0.000501350159573, "(0.001, 0.0, 0.0, 0.0, 0.001, 0.0, 0.0, 0.0, 0.001)", 0.218037754618, 0.0631638387172, 0.147214907721, "(0.001, 0.0, 0.0, 0.0, 0.001, 0.0, 0.0, 0.0, 0.001)"
1637149069264764437, 6937, 1636512983, 341308116, base_link, -0.00620701147161, -0.0158267107825, -0.999684974718, 0.0184645486437, "(0.00023413910808505693, 0.0, 0.0, 0.0, 0.00023149971504091236, 0.0, 0.0, 0.0, 0.011324056250092751)", -0.000465374016774, -0.000123866721777, 0.000274311461723, "(0.001, 0.0, 0.0, 0.0, 0.001, 0.0, 0.0, 0.0, 0.001)", -0.115708129134, -0.0586508940972, -0.134174712988, "(0.001, 0.0, 0.0, 0.0, 0.001, 0.0, 0.0, 0.0, 0.001)"
1637149069285687075, 6938, 1636512983, 362257003, base_link, -0.00620514470398, -0.0158323879803, -0.999684836176, 0.018467809543, "(0.00023413910808505693, 0.0, 0.0, 0.0, 0.00023149971504091236, 0.0, 0.0, 0.0, 0.011324056250092751)", 0.000417393844943, -0.000797407792822, 0.000135544715738, "(0.001, 0.0, 0.0, 0.0, 0.001, 0.0, 0.0, 0.0, 0.001)", 0.167053128656, -0.103317666004, 0.0912184202348, "(0.001, 0.0, 0.0, 0.0, 0.001, 0.0, 0.0, 0.0, 0.001)"
1637149069305694861, 6939, 1636512983, 381525039, base_link, -0.00621120207046, -0.0158357753159, -0.999684816392, 0.0184639395517, "(0.00023413910808505693, 0.0, 0.0, 0.0, 0.00023149971504091236, 0.0, 0.0, 0.0, 0.011324056250092751)", 0.000424661553763, -0.000232825679221, -4.6385728356e-05, "(0.001, 0.0, 0.0, 0.0, 0.001, 0.0, 0.0, 0.0, 0.001)", -0.200841774216, -0.0160623539764, -0.140524839966, "(0.001, 0.0, 0.0, 0.0, 0.001, 0.0, 0.0, 0.0, 0.001)"
1637149069324090201, 6940, 1636512983, 400544881, base_link, -0.00620227994336, -0.0158327406746, -0.999684903094, 0.0184648469454, "(0.00023413910808505693, 0.0, 0.0, 0.0, 0.00023149971504091236, 0.0, 0.0, 0.0, 0.011324056250092751)", 0.000607004549258, -7.66992962629e-06, -0.000280392777555, "(0.001, 0.0, 0.0, 0.0, 0.001, 0.0, 0.0, 0.0, 0.001)", 0.31591821571, 0.0878431485641, 0.129246024848, "(0.001, 0.0, 0.0, 0.0, 0.001, 0.0, 0.0, 0.0, 0.001)"
1637149069346581343, 6941, 1636512983, 422895908, base_link, -0.00620964198729, -0.0158357645121, -0.99968479289, 0.018465745965, "(0.00023413910808505693, 0.0, 0.0, 0.0, 0.00023149971504091236, 0.0, 0.0, 0.0, 0.011324056250092751)", 0.000181553894621, 0.000271392364641, 0.000331392213708, "(0.001, 0.0, 0.0, 0.0, 0.001, 0.0, 0.0, 0.0, 0.001)", -0.335487910514, -0.0921480313218, -0.144411182719, "(0.001, 0.0, 0.0, 0.0, 0.001, 0.0, 0.0, 0.0, 0.001)"
1637149069364180237, 6942, 1636512983, 440701007, base_link, -0.00620477693834, -0.0158421858481, -0.999684744528, 0.0184644915414, "(0.00023413910808505693, 0.0, 0.0, 0.0, 0.00023149971504091236, 0.0, 0.0, 0.0, 0.011324056250092751)", 0.00106039566838, -0.000841696095571, -3.45660290959e-05, "(0.001, 0.0, 0.0, 0.0, 0.001, 0.0, 0.0, 0.0, 0.001)", 0.384249674197, -0.0721769997876, 0.167213758603, "(0.001, 0.0, 0.0, 0.0, 0.001, 0.0, 0.0, 0.0, 0.001)"
1637149069384826156, 6943, 1636512983, 461386919, base_link, -0.00619722950213, -0.0158451421076, -0.999684845512, 0.0184590214343, "(0.00023413910808505693, 0.0, 0.0, 0.0, 0.00023149971504091236, 0.0, 0.0, 0.0, 0.011324056250092751)", 0.000925577395422, 0.00174807899678, -0.000600346745369, "(0.001, 0.0, 0.0, 0.0, 0.001, 0.0, 0.0, 0.0, 0.001)", -0.292344726723, -0.01295581047, -0.105934138827, "(0.001, 0.0, 0.0, 0.0, 0.001, 0.0, 0.0, 0.0, 0.001)"
1637149069407737827, 6944, 1636512983, 483829021, base_link, -0.00620191519445, -0.0158464558421, -0.999684681925, 0.0184651782753, "(0.00023413910808505693, 0.0, 0.0, 0.0, 0.00023149971504091236, 0.0, 0.0, 0.0, 0.011324056250092751)", 0.000473876514223, -0.000573716540246, 0.000134243874919, "(0.001, 0.0, 0.0, 0.0, 0.001, 0.0, 0.0, 0.0, 0.001)", 0.226749449025, 0.0871253634882, 0.116553128158, "(0.001, 0.0, 0.0, 0.0, 0.001, 0.0, 0.0, 0.0, 0.001)"
1637149069424545173, 6945, 1636512983, 501100063, base_link, -0.00619533400333, -0.0158341984151, -0.999684982807, 0.018461612797, "(0.00023413910808505693, 0.0, 0.0, 0.0, 0.00023149971504091236, 0.0, 0.0, 0.0, 0.011324056250092751)", -0.00102458580947, 0.000728917889819, 0.000106296522735, "(0.001, 0.0, 0.0, 0.0, 0.001, 0.0, 0.0, 0.0, 0.001)", -0.205144581173, -0.037272556759, -0.0896365310435, "(0.001, 0.0, 0.0, 0.0, 0.001, 0.0, 0.0, 0.0, 0.001)"
1637149069444256596, 6946, 1636512983, 520826101, base_link, -0.00619667757334, -0.0158404494768, -0.999684931744, 0.0184585641826, "(0.00023413910808505693, 0.0, 0.0, 0.0, 0.00023149971504091236, 0.0, 0.0, 0.0, 0.011324056250092751)", -0.000244147881714, -0.000263706086321, -0.000900345787948, "(0.001, 0.0, 0.0, 0.0, 0.001, 0.0, 0.0, 0.0, 0.001)", 0.135819778434, -0.0317845254598, 0.122429175452, "(0.001, 0.0, 0.0, 0.0, 0.001, 0.0, 0.0, 0.0, 0.001)"
1637149069466007387, 6947, 1636512983, 542583942, base_link, -0.00620456250588, -0.015848640314, -0.999684775874, 0.0184573262128, "(0.00023413910808505693, 0.0, 0.0, 0.0, 0.00023149971504091236, 0.0, 0.0, 0.0, 0.011324056250092751)", 0.000993593535023, -7.80794779969e-05, 2.01038127861e-05, "(0.001, 0.0, 0.0, 0.0, 0.001, 0.0, 0.0, 0.0, 0.001)", -0.285680679351, 0.00540461916638, -0.0981829036179, "(0.001, 0.0, 0.0, 0.0, 0.001, 0.0, 0.0, 0.0, 0.001)"
1637149069484080415, 6948, 1636512983, 560511112, base_link, -0.00620068902109, -0.0158407130996, -0.999684826645, 0.0184626823394, "(0.00023413910808505693, 0.0, 0.0, 0.0, 0.00023149971504091236, 0.0, 0.0, 0.0, 0.011324056250092751)", 0.000221326965603, -0.00112582761254, 0.000174358622304, "(0.001, 0.0, 0.0, 0.0, 0.001, 0.0, 0.0, 0.0, 0.001)", 0.286536604219, 0.0235825005351, 0.0892937819731, "(0.001, 0.0, 0.0, 0.0, 0.001, 0.0, 0.0, 0.0, 0.001)"
1637149069505095124, 6949, 1636512983, 581185102, base_link, -0.00621050688211, -0.0158354227938, -0.999684728962, 0.0184692086585, "(0.00023413910808505693, 0.0, 0.0, 0.0, 0.00023149971504091236, 0.0, 0.0, 0.0, 0.011324056250092751)", -0.000844522709811, 5.6862573912e-06, 0.00103748748217, "(0.001, 0.0, 0.0, 0.0, 0.001, 0.0, 0.0, 0.0, 0.001)", -0.352495205495, -0.0365747717743, -0.136450415565, "(0.001, 0.0, 0.0, 0.0, 0.001, 0.0, 0.0, 0.0, 0.001)"
1637149069524477999, 6950, 1636512983, 601020097, base_link, -0.0062119202798, -0.0158446948939, -0.999684622161, 0.0184665618155, "(0.00023413910808505693, 0.0, 0.0, 0.0, 0.00023149971504091236, 0.0, 0.0, 0.0, 0.011324056250092751)", 0.000807290651375, -0.00215307367912, 0.000185399325115, "(0.001, 0.0, 0.0, 0.0, 0.001, 0.0, 0.0, 0.0, 0.001)", 0.367134842567, -0.0565757146346, 0.0572125846952, "(0.001, 0.0, 0.0, 0.0, 0.001, 0.0, 0.0, 0.0, 0.001)"
1637149069546194437, 6951, 1636512983, 622693061, base_link, -0.00621073269393, -0.0158502929571, -0.999684485286, 0.0184695666179, "(0.00023413910808505693, 0.0, 0.0, 0.0, 0.00023149971504091236, 0.0, 0.0, 0.0, 0.011324056250092751)", 0.000989668713463, 0.000562937189804, 0.000440391503549, "(0.001, 0.0, 0.0, 0.0, 0.001, 0.0, 0.0, 0.0, 0.001)", -0.275655258511, 0.0421666520293, -0.084863790197, "(0.001, 0.0, 0.0, 0.0, 0.001, 0.0, 0.0, 0.0, 0.001)"
1637149069564420494, 6952, 1636512983, 640923976, base_link, -0.00622285128909, -0.015849907284, -0.999684349403, 0.0184731729628, "(0.00023413910808505693, 0.0, 0.0, 0.0, 0.00023149971504091236, 0.0, 0.0, 0.0, 0.011324056250092751)", 0.000983458236407, -0.00201045276912, 0.000692667336251, "(0.001, 0.0, 0.0, 0.0, 0.001, 0.0, 0.0, 0.0, 0.001)", 0.170775836777, 0.0378341498643, 0.0247269387528, "(0.001, 0.0, 0.0, 0.0, 0.001, 0.0, 0.0, 0.0, 0.001)"
1637149069586087164, 6953, 1636512983, 662569999, base_link, -0.0062172510852, -0.0158566600041, -0.999684150453, 0.0184800285413, "(0.00023413910808505693, 0.0, 0.0, 0.0, 0.00023149971504091236, 0.0, 0.0, 0.0, 0.011324056250092751)", 0.000515630037225, 0.000328536347962, 0.0010254392374, "(0.001, 0.0, 0.0, 0.0, 0.001, 0.0, 0.0, 0.0, 0.001)", -0.180136836948, 0.00971107113978, -0.103448708931, "(0.001, 0.0, 0.0, 0.0, 0.001, 0.0, 0.0, 0.0, 0.001)"
1637149069604487536, 6954, 1636512983, 680681943, base_link, -0.00622251277329, -0.0158606098879, -0.999684133622, 0.0184757780192, "(0.00023413910808505693, 0.0, 0.0, 0.0, 0.00023149971504091236, 0.0, 0.0, 0.0, 0.011324056250092751)", 0.00128678317037, -0.000827387357717, -0.000129448708741, "(0.001, 0.0, 0.0, 0.0, 0.001, 0.0, 0.0, 0.0, 0.001)", 0.130136529719, -0.00557432996261, 0.120884567628, "(0.001, 0.0, 0.0, 0.0, 0.001, 0.0, 0.0, 0.0, 0.001)"
1637149069625057479, 6955, 1636512983, 701541900, base_link, -0.00623773369283, -0.0158784417118, -0.999683735168, 0.0184768885018, "(0.00023413910808505693, 0.0, 0.0, 0.0, 0.00023149971504091236, 0.0, 0.0, 0.0, 0.011324056250092751)", 0.00199314875732, -0.00128073273462, 0.000224232390939, "(0.001, 0.0, 0.0, 0.0, 0.001, 0.0, 0.0, 0.0, 0.001)", -0.310003800541, 0.0757410196731, -0.0797114312674, "(0.001, 0.0, 0.0, 0.0, 0.001, 0.0, 0.0, 0.0, 0.001)"
1637149069645422849, 6956, 1636512983, 721978902, base_link, -0.00624009520812, -0.0158791726729, -0.999683700839, 0.018477320263, "(0.00023413910808505693, 0.0, 0.0, 0.0, 0.00023149971504091236, 0.0, 0.0, 0.0, 0.011324056250092751)", 0.00185007562034, -0.00258730739475, -1.50788266914e-06, "(0.001, 0.0, 0.0, 0.0, 0.001, 0.0, 0.0, 0.0, 0.001)", 0.255695204978, 0.189543163906, 0.160207869675, "(0.001, 0.0, 0.0, 0.0, 0.001, 0.0, 0.0, 0.0, 0.001)"
1637149069664375650, 6957, 1636512983, 740979909, base_link, -0.00626227942852, -0.0158825931594, -0.999683598586, 0.0184724066959, "(0.00023413910808505693, 0.0, 0.0, 0.0, 0.00023149971504091236, 0.0, 0.0, 0.0, 0.011324056250092751)", 0.000643184671394, -0.00176003665171, -0.000311558888042, "(0.001, 0.0, 0.0, 0.0, 0.001, 0.0, 0.0, 0.0, 0.001)", -0.385542024093, 0.140201522246, -0.211587749312, "(0.001, 0.0, 0.0, 0.0, 0.001, 0.0, 0.0, 0.0, 0.001)"
1637149069684480377, 6958, 1636512983, 760932922, base_link, -0.00627925359062, -0.0159033311016, -0.999683133516, 0.0184739708236, "(0.00023413910808505693, 0.0, 0.0, 0.0, 0.00023149971504091236, 0.0, 0.0, 0.0, 0.011324056250092751)", 0.00307633996991, -0.00521674177408, -3.26615969108e-05, "(0.001, 0.0, 0.0, 0.0, 0.001, 0.0, 0.0, 0.0, 0.001)", 0.308326119375, 0.174448546549, 0.0403560487658, "(0.001, 0.0, 0.0, 0.0, 0.001, 0.0, 0.0, 0.0, 0.001)"
1637149069706610721, 6959, 1636512983, 782476902, base_link, -0.00629809704072, -0.0159257524872, -0.999682813558, 0.0184655533126, "(0.00023413910808505693, 0.0, 0.0, 0.0, 0.00023149971504091236, 0.0, 0.0, 0.0, 0.011324056250092751)", 0.00287700314352, -0.00215209550279, -0.000906203890969, "(0.001, 0.0, 0.0, 0.0, 0.001, 0.0, 0.0, 0.0, 0.001)", -0.272894025566, 0.185935968126, -0.304308777113, "(0.001, 0.0, 0.0, 0.0, 0.001, 0.0, 0.0, 0.0, 0.001)"
1637149069725619892, 6960, 1636512983, 802141904, base_link, -0.00631660333447, -0.0159784518563, -0.999681677187, 0.0184752238087, "(0.00023413910808505693, 0.0, 0.0, 0.0, 0.00023149971504091236, 0.0, 0.0, 0.0, 0.011324056250092751)", 0.00977996826555, -0.00559906070492, 0.000562695688503, "(0.001, 0.0, 0.0, 0.0, 0.001, 0.0, 0.0, 0.0, 0.001)", 0.163900497484, 0.519583787224, -0.00786273507398, "(0.001, 0.0, 0.0, 0.0, 0.001, 0.0, 0.0, 0.0, 0.001)"
1637149069747583619, 6961, 1636512983, 824122905, base_link, -0.00634422785519, -0.0160208399641, -0.999680834903, 0.0184746255095, "(0.00023413910808505693, 0.0, 0.0, 0.0, 0.00023149971504091236, 0.0, 0.0, 0.0, 0.011324056250092751)", 0.00646299830477, -0.00345274053402, 0.000338016266656, "(0.001, 0.0, 0.0, 0.0, 0.001, 0.0, 0.0, 0.0, 0.001)", -0.0985154629161, 0.333702464862, -0.293892384414, "(0.001, 0.0, 0.0, 0.0, 0.001, 0.0, 0.0, 0.0, 0.001)"
1637149069765236387, 6962, 1636512983, 841840982, base_link, -0.00634076411013, -0.0160865709991, -0.999679670112, 0.0184817236443, "(0.00023413910808505693, 0.0, 0.0, 0.0, 0.00023149971504091236, 0.0, 0.0, 0.0, 0.011324056250092751)", 0.0129834890369, -0.00276666907934, 0.00103587158186, "(0.001, 0.0, 0.0, 0.0, 0.001, 0.0, 0.0, 0.0, 0.001)", 0.20342166777, 0.578870514484, 0.0151223371692, "(0.001, 0.0, 0.0, 0.0, 0.001, 0.0, 0.0, 0.0, 0.001)"
1637149069784521929, 6963, 1636512983, 861038923, base_link, -0.00634076411013, -0.0160865709991, -0.999679670112, 0.0184817236443, "(0.00023413910808505693, 0.0, 0.0, 0.0, 0.00023149971504091236, 0.0, 0.0, 0.0, 0.011324056250092751)", 0.00926335146126, -0.00242909432671, 0.000354547905192, "(0.001, 0.0, 0.0, 0.0, 0.001, 0.0, 0.0, 0.0, 0.001)", -0.103309862964, 0.371704812902, -0.320804827784, "(0.001, 0.0, 0.0, 0.0, 0.001, 0.0, 0.0, 0.0, 0.001)"
1637149069804755458, 6964, 1636512983, 881249904, base_link, -0.00634965566927, -0.0162174435071, -0.999677330844, 0.0184908246313, "(0.00023413910808505693, 0.0, 0.0, 0.0, 0.00023149971504091236, 0.0, 0.0, 0.0, 0.011324056250092751)", 0.0166481324899, -0.000913100768989, 0.00139945763338, "(0.001, 0.0, 0.0, 0.0, 0.001, 0.0, 0.0, 0.0, 0.001)", 0.226999976993, 0.791908379201, 0.130806409362, "(0.001, 0.0, 0.0, 0.0, 0.001, 0.0, 0.0, 0.0, 0.001)"
1637149069825337622, 6965, 1636512983, 901827096, base_link, -0.00637550024116, -0.0162801487583, -0.999676043234, 0.0184964411879, "(0.00023413910808505693, 0.0, 0.0, 0.0, 0.00023149971504091236, 0.0, 0.0, 0.0, 0.011324056250092751)", 0.00967253893087, -0.00237539985883, 0.000754676521259, "(0.001, 0.0, 0.0, 0.0, 0.001, 0.0, 0.0, 0.0, 0.001)", -0.0878431853719, 0.559235887889, -0.321847637904, "(0.001, 0.0, 0.0, 0.0, 0.001, 0.0, 0.0, 0.0, 0.001)"
1637149069844088485, 6966, 1636512983, 920650005, base_link, -0.00637036611729, -0.0163584594874, -0.99967476325, 0.0184982961411, "(0.00023413910808505693, 0.0, 0.0, 0.0, 0.00023149971504091236, 0.0, 0.0, 0.0, 0.011324056250092751)", 0.0183017802891, -0.00177657376455, 0.00100854289418, "(0.001, 0.0, 0.0, 0.0, 0.001, 0.0, 0.0, 0.0, 0.001)", 0.0952145881104, 0.893595074944, 0.215383269029, "(0.001, 0.0, 0.0, 0.0, 0.001, 0.0, 0.0, 0.0, 0.001)"
1637149069865007580, 6967, 1636512983, 941615104, base_link, -0.00639306025743, -0.016433893867, -0.999673236493, 0.0185061112124, "(0.00023413910808505693, 0.0, 0.0, 0.0, 0.00023149971504091236, 0.0, 0.0, 0.0, 0.011324056250092751)", 0.0113690866686, -0.00250734165595, 0.000580864725288, "(0.001, 0.0, 0.0, 0.0, 0.001, 0.0, 0.0, 0.0, 0.001)", 0.0216574787486, 0.644958898966, -0.324728601553, "(0.001, 0.0, 0.0, 0.0, 0.001, 0.0, 0.0, 0.0, 0.001)"
1637149069885367025, 6968, 1636512983, 961880922, base_link, -0.00638270574938, -0.0165101323308, -0.999671981281, 0.0185096310101, "(0.00023413910808505693, 0.0, 0.0, 0.0, 0.00023149971504091236, 0.0, 0.0, 0.0, 0.011324056250092751)", 0.0185042472827, -0.000517719411221, 0.00156168480379, "(0.001, 0.0, 0.0, 0.0, 0.001, 0.0, 0.0, 0.0, 0.001)", -0.0612561270895, 0.954788253271, 0.250036933844, "(0.001, 0.0, 0.0, 0.0, 0.001, 0.0, 0.0, 0.0, 0.001)"
1637149069905563065, 6969, 1636512983, 981645107, base_link, -0.00639903375197, -0.0165853840585, -0.999670620173, 0.0185102286663, "(0.00023413910808505693, 0.0, 0.0, 0.0, 0.00023149971504091236, 0.0, 0.0, 0.0, 0.011324056250092751)", 0.0118326216582, -0.00213086700132, -5.21400946944e-05, "(0.001, 0.0, 0.0, 0.0, 0.001, 0.0, 0.0, 0.0, 0.001)", 0.106004239007, 0.782389552615, -0.24505525159, "(0.001, 0.0, 0.0, 0.0, 0.001, 0.0, 0.0, 0.0, 0.001)"
1637149069924288071, 6970, 1636512984, 791072, base_link, -0.00638399959723, -0.0166468581293, -0.999669862557, 0.0185011501816, "(0.00023413910808505693, 0.0, 0.0, 0.0, 0.00023149971504091236, 0.0, 0.0, 0.0, 0.011324056250092751)", 0.0162669357435, 0.000530606906561, -0.000907845338551, "(0.001, 0.0, 0.0, 0.0, 0.001, 0.0, 0.0, 0.0, 0.001)", -0.100906923682, 0.971501312603, 0.344395800322, "(0.001, 0.0, 0.0, 0.0, 0.001, 0.0, 0.0, 0.0, 0.001)"
1637149069946136886, 6971, 1636512984, 22598028, base_link, -0.00638399959723, -0.0166468581293, -0.999669862557, 0.0185011501816, "(0.00023413910808505693, 0.0, 0.0, 0.0, 0.00023149971504091236, 0.0, 0.0, 0.0, 0.011324056250092751)", 0.0109345651393, -0.00210565986414, -0.000288590616488, "(0.001, 0.0, 0.0, 0.0, 0.001, 0.0, 0.0, 0.0, 0.001)", 0.0713034197166, 0.841924299943, -0.200248761392, "(0.001, 0.0, 0.0, 0.0, 0.001, 0.0, 0.0, 0.0, 0.001)"
1637149069964002799, 6972, 1636512984, 40585041, base_link, -0.00638528240507, -0.0167458277135, -0.999668314861, 0.018495017856, "(0.00023413910808505693, 0.0, 0.0, 0.0, 0.00023149971504091236, 0.0, 0.0, 0.0, 0.011324056250092751)", 0.0120325461506, 0.000780700721441, -0.00102365817239, "(0.001, 0.0, 0.0, 0.0, 0.001, 0.0, 0.0, 0.0, 0.001)", 0.031062494482, 1.09641284157, 0.41556142503, "(0.001, 0.0, 0.0, 0.0, 0.001, 0.0, 0.0, 0.0, 0.001)"
1637149069985651751, 6973, 1636512984, 62151908, base_link, -0.00640536358847, -0.0167988703376, -0.99966737162, 0.0184909543285, "(0.00023413910808505693, 0.0, 0.0, 0.0, 0.00023149971504091236, 0.0, 0.0, 0.0, 0.011324056250092751)", 0.00783344082082, -0.00164579732836, -0.000886037514207, "(0.001, 0.0, 0.0, 0.0, 0.001, 0.0, 0.0, 0.0, 0.001)", 0.0154427967654, 0.826898577765, -0.178547315952, "(0.001, 0.0, 0.0, 0.0, 0.001, 0.0, 0.0, 0.0, 0.001)"
1637149070005366419, 6974, 1636512984, 81877946, base_link, -0.00638864920395, -0.0168180216899, -0.999667387518, 0.0184784642663, "(0.00023413910808505693, 0.0, 0.0, 0.0, 0.00023149971504091236, 0.0, 0.0, 0.0, 0.011324056250092751)", 0.00816523520566, 0.000412730973862, -0.00205674551896, "(0.001, 0.0, 0.0, 0.0, 0.001, 0.0, 0.0, 0.0, 0.001)", 0.10001439045, 1.16974568814, 0.432937154529, "(0.001, 0.0, 0.0, 0.0, 0.001, 0.0, 0.0, 0.0, 0.001)"
1637149070024672579, 6975, 1636512984, 101170063, base_link, -0.00640211103416, -0.0168617575937, -0.999666608868, 0.0184760715587, "(0.00023413910808505693, 0.0, 0.0, 0.0, 0.00023149971504091236, 0.0, 0.0, 0.0, 0.011324056250092751)", 0.00626890931828, -0.000986163723522, -0.00126288646396, "(0.001, 0.0, 0.0, 0.0, 0.001, 0.0, 0.0, 0.0, 0.001)", 0.0806396660482, 0.892969544133, -0.170631600996, "(0.001, 0.0, 0.0, 0.0, 0.001, 0.0, 0.0, 0.0, 0.001)"
1637149070044386202, 6976, 1636512984, 120918035, base_link, -0.00639125744984, -0.0168756818584, -0.999666484154, 0.0184738639303, "(0.00023413910808505693, 0.0, 0.0, 0.0, 0.00023149971504091236, 0.0, 0.0, 0.0, 0.011324056250092751)", 0.00637701522731, 0.00036581996624, -0.000526048485974, "(0.001, 0.0, 0.0, 0.0, 0.001, 0.0, 0.0, 0.0, 0.001)", 0.0376474547498, 1.19683745213, 0.419257367329, "(0.001, 0.0, 0.0, 0.0, 0.001, 0.0, 0.0, 0.0, 0.001)"
1637149070064851441, 6977, 1636512984, 141361951, base_link, -0.0063977993235, -0.0168896402257, -0.99966614666, 0.0184771057991, "(0.00023413910808505693, 0.0, 0.0, 0.0, 0.00023149971504091236, 0.0, 0.0, 0.0, 0.011324056250092751)", 0.00279083598485, -0.000532733242123, -6.57406038703e-05, "(0.001, 0.0, 0.0, 0.0, 0.001, 0.0, 0.0, 0.0, 0.001)", 0.129493601097, 0.852796407094, -0.132711956291, "(0.001, 0.0, 0.0, 0.0, 0.001, 0.0, 0.0, 0.0, 0.001)"
1637149070084067879, 6978, 1636512984, 160537004, base_link, -0.00636149667974, -0.0168912997562, -0.999666304812, 0.0184795664545, "(0.00023413910808505693, 0.0, 0.0, 0.0, 0.00023149971504091236, 0.0, 0.0, 0.0, 0.011324056250092751)", 0.00215817226003, 0.00440440545181, 0.00059490683891, "(0.001, 0.0, 0.0, 0.0, 0.001, 0.0, 0.0, 0.0, 0.001)", 0.148650840078, 1.17485021249, 0.282420809673, "(0.001, 0.0, 0.0, 0.0, 0.001, 0.0, 0.0, 0.0, 0.001)"
1637149070105848156, 6979, 1636512984, 181417942, base_link, -0.00636716066653, -0.0168980454128, -0.999666116619, 0.0184816290022, "(0.00023413910808505693, 0.0, 0.0, 0.0, 0.00023149971504091236, 0.0, 0.0, 0.0, 0.011324056250092751)", 0.000964011919886, 0.000856158702296, 0.000131726367039, "(0.001, 0.0, 0.0, 0.0, 0.001, 0.0, 0.0, 0.0, 0.001)", 0.0359651314656, 0.886188712102, -0.241159377578, "(0.001, 0.0, 0.0, 0.0, 0.001, 0.0, 0.0, 0.0, 0.001)"
1637149070124545034, 6980, 1636512984, 201004981, base_link, -0.00632929917353, -0.0169025048836, -0.999666221883, 0.0184848620899, "(0.00023413910808505693, 0.0, 0.0, 0.0, 0.00023149971504091236, 0.0, 0.0, 0.0, 0.011324056250092751)", 0.00187669011694, 0.00480191454663, 0.000807979306589, "(0.001, 0.0, 0.0, 0.0, 0.001, 0.0, 0.0, 0.0, 0.001)", 0.218599222037, 1.20868956498, 0.268263176602, "(0.001, 0.0, 0.0, 0.0, 0.001, 0.0, 0.0, 0.0, 0.001)"
1637149070148959072, 6981, 1636512984, 222562074, base_link, -0.00631661573512, -0.0169137319015, -0.999665940681, 0.0184941363747, "(0.00023413910808505693, 0.0, 0.0, 0.0, 0.00023149971504091236, 0.0, 0.0, 0.0, 0.011324056250092751)", 0.00126033946892, 0.00284661481837, 0.000857848321564, "(0.001, 0.0, 0.0, 0.0, 0.001, 0.0, 0.0, 0.0, 0.001)", -0.052874634971, 0.951850448265, -0.197037718768, "(0.001, 0.0, 0.0, 0.0, 0.001, 0.0, 0.0, 0.0, 0.001)"
1637149070164445784, 6982, 1636512984, 241004943, base_link, -0.0062815837068, -0.0169045695798, -0.999666295417, 0.0184952707834, "(0.00023413910808505693, 0.0, 0.0, 0.0, 0.00023149971504091236, 0.0, 0.0, 0.0, 0.011324056250092751)", 0.000525664622285, 0.00594754254513, 0.00125314392402, "(0.001, 0.0, 0.0, 0.0, 0.001, 0.0, 0.0, 0.0, 0.001)", 0.123579088539, 1.25571679661, 0.240200174736, "(0.001, 0.0, 0.0, 0.0, 0.001, 0.0, 0.0, 0.0, 0.001)"
1637149070185231928, 6983, 1636512984, 261727094, base_link, -0.00626297230017, -0.0168990836561, -0.999666449393, 0.018498273076, "(0.00023413910808505693, 0.0, 0.0, 0.0, 0.00023149971504091236, 0.0, 0.0, 0.0, 0.011324056250092751)", -0.000636621385803, 0.00396155738661, 6.95758661386e-05, "(0.001, 0.0, 0.0, 0.0, 0.001, 0.0, 0.0, 0.0, 0.001)", -0.00566211283849, 0.858417249435, -0.222426581449, "(0.001, 0.0, 0.0, 0.0, 0.001, 0.0, 0.0, 0.0, 0.001)"
1637149070205098663, 6984, 1636512984, 280582904, base_link, -0.00623470628829, -0.016888815236, -0.999666810286, 0.0184976963492, "(0.00023413910808505693, 0.0, 0.0, 0.0, 0.00023149971504091236, 0.0, 0.0, 0.0, 0.011324056250092751)", -0.00128888528834, 0.00569088813651, 0.000550532660345, "(0.001, 0.0, 0.0, 0.0, 0.001, 0.0, 0.0, 0.0, 0.001)", 0.00586807996241, 1.285437141, 0.132202270049, "(0.001, 0.0, 0.0, 0.0, 0.001, 0.0, 0.0, 0.0, 0.001)"
1637149070229312461, 6985, 1636512984, 305548906, base_link, -0.00622399611619, -0.0168887160835, -0.999666769781, 0.018503581711, "(0.00023413910808505693, 0.0, 0.0, 0.0, 0.00023149971504091236, 0.0, 0.0, 0.0, 0.011324056250092751)", -0.000989015764864, 0.00268577752569, 0.000150602546891, "(0.001, 0.0, 0.0, 0.0, 0.001, 0.0, 0.0, 0.0, 0.001)", -0.00541050486635, 0.917797632074, -0.222248555791, "(0.001, 0.0, 0.0, 0.0, 0.001, 0.0, 0.0, 0.0, 0.001)"
1637149070246538688, 6986, 1636512984, 323012113, base_link, -0.00618562428721, -0.0168801311142, -0.999667325863, 0.0184942376955, "(0.0005460731328771375, 0.0, 0.0, 0.0, 0.000543491750689299, 0.0, 0.0, 0.0, 0.0116655214672301)", -0.000672772223029, 0.00653337523929, -0.00081239596072, "(0.001, 0.0, 0.0, 0.0, 0.001, 0.0, 0.0, 0.0, 0.001)", -0.0742820650847, 1.28512972576, 0.153038142984, "(0.001, 0.0, 0.0, 0.0, 0.001, 0.0, 0.0, 0.0, 0.001)"
1637149070264943878, 6987, 1636512984, 341456890, base_link, -0.00618509659812, -0.0168941006043, -0.999667207213, 0.018488070965, "(0.0005460729587704362, 0.0, 0.0, 0.0, 0.0005434876688712453, 0.0, 0.0, 0.0, 0.01166546352780884)", 0.000513530214823, 0.00230810091014, -0.000944741315279, "(0.001, 0.0, 0.0, 0.0, 0.001, 0.0, 0.0, 0.0, 0.001)", -0.0693089451472, 0.806548329819, -0.267047036775, "(0.001, 0.0, 0.0, 0.0, 0.001, 0.0, 0.0, 0.0, 0.001)"
1637149070285119053, 6988, 1636512984, 361666917, base_link, -0.00615009663622, -0.0168771200899, -0.999667922178, 0.0184765932269, "(0.0005460729587704362, 0.0, 0.0, 0.0, 0.0005434876688712453, 0.0, 0.0, 0.0, 0.01166546352780884)", -0.00101528978351, 0.0052174969554, -0.00206098479649, "(0.001, 0.0, 0.0, 0.0, 0.001, 0.0, 0.0, 0.0, 0.001)", 0.0663289805712, 1.31328438275, 0.218281702835, "(0.001, 0.0, 0.0, 0.0, 0.001, 0.0, 0.0, 0.0, 0.001)"
1637149070305973889, 6989, 1636512984, 381927013, base_link, -0.0061383241031, -0.0168722599108, -0.999668109336, 0.0184748206979, "(0.0005460729587704362, 0.0, 0.0, 0.0, 0.0005434876688712453, 0.0, 0.0, 0.0, 0.01166546352780884)", -0.00132598533725, 0.0031883965025, -0.00104733520966, "(0.001, 0.0, 0.0, 0.0, 0.001, 0.0, 0.0, 0.0, 0.001)", -0.014845643899, 0.791950054206, -0.168083649293, "(0.001, 0.0, 0.0, 0.0, 0.001, 0.0, 0.0, 0.0, 0.001)"
1637149070324191861, 6990, 1636512984, 400625944, base_link, -0.00611643665134, -0.0168459756757, -0.999668863201, 0.0184652715246, "(0.0005460729587704362, 0.0, 0.0, 0.0, 0.0005434876688712453, 0.0, 0.0, 0.0, 0.01166546352780884)", -0.00339865469864, 0.00408713596029, -0.00142708401774, "(0.001, 0.0, 0.0, 0.0, 0.001, 0.0, 0.0, 0.0, 0.001)", 0.0269098436992, 1.27268428036, 0.322308733307, "(0.001, 0.0, 0.0, 0.0, 0.001, 0.0, 0.0, 0.0, 0.001)"
1637149070345284754, 6991, 1636512984, 421814918, base_link, -0.00611164610557, -0.0168203572492, -0.999669409006, 0.0184606625404, "(0.0005460729587704362, 0.0, 0.0, 0.0, 0.0005434876688712453, 0.0, 0.0, 0.0, 0.01166546352780884)", -0.00389496087434, 0.00192647377553, -0.00128005077865, "(0.001, 0.0, 0.0, 0.0, 0.001, 0.0, 0.0, 0.0, 0.001)", 0.118299822076, 0.795505286348, -0.15403603561, "(0.001, 0.0, 0.0, 0.0, 0.001, 0.0, 0.0, 0.0, 0.001)"
1637149070364207270, 6992, 1636512984, 440663099, base_link, -0.00608888270568, -0.0167736793787, -0.999670521932, 0.0184503866769, "(0.0005460729587704362, 0.0, 0.0, 0.0, 0.0005434876688712453, 0.0, 0.0, 0.0, 0.01166546352780884)", -0.00861213687849, 0.00423386314681, -0.00169421907171, "(0.001, 0.0, 0.0, 0.0, 0.001, 0.0, 0.0, 0.0, 0.001)", -0.0756215256264, 0.983635370735, 0.241386193516, "(0.001, 0.0, 0.0, 0.0, 0.001, 0.0, 0.0, 0.0, 0.001)"
1637149070385372541, 6993, 1636512984, 461841106, base_link, -0.0060766647911, -0.0167375632224, -0.999671108502, 0.01845543144, "(0.0005460729587704362, 0.0, 0.0, 0.0, 0.0005434876688712453, 0.0, 0.0, 0.0, 0.01166546352780884)", -0.00582554373285, 0.00235099849082, -0.000194409086058, "(0.001, 0.0, 0.0, 0.0, 0.001, 0.0, 0.0, 0.0, 0.001)", 0.27887334962, 0.775852955803, -0.233652540424, "(0.001, 0.0, 0.0, 0.0, 0.001, 0.0, 0.0, 0.0, 0.001)"
1637149070405639124, 6994, 1636512984, 481230974, base_link, -0.00603180057699, -0.0166913375326, -0.999672218893, 0.0184518673003, "(0.0005460729587704362, 0.0, 0.0, 0.0, 0.0005434876688712453, 0.0, 0.0, 0.0, 0.01166546352780884)", -0.0104462760756, 0.00772985169303, -0.000307908806561, "(0.001, 0.0, 0.0, 0.0, 0.001, 0.0, 0.0, 0.0, 0.001)", -0.0646593644839, 0.95809700978, 0.139560030476, "(0.001, 0.0, 0.0, 0.0, 0.001, 0.0, 0.0, 0.0, 0.001)"
1637149070424488836, 6995, 1636512984, 500844955, base_link, -0.00601874634053, -0.0166681775745, -0.99967264306, 0.0184540853444, "(0.0005460729587704362, 0.0, 0.0, 0.0, 0.0005434876688712453, 0.0, 0.0, 0.0, 0.01166546352780884)", -0.00442527569815, 0.00352056684552, -2.22362712694e-05, "(0.001, 0.0, 0.0, 0.0, 0.001, 0.0, 0.0, 0.0, 0.001)", 0.184221519721, 0.762533377214, -0.343879023267, "(0.001, 0.0, 0.0, 0.0, 0.001, 0.0, 0.0, 0.0, 0.001)"
1637149070444231861, 6996, 1636512984, 520785093, base_link, -0.00597507202044, -0.0166362454357, -0.999673639849, 0.0184430920368, "(0.0005460729587704362, 0.0, 0.0, 0.0, 0.0005434876688712453, 0.0, 0.0, 0.0, 0.01166546352780884)", -0.00773296078226, 0.00783496725015, -0.00149064794062, "(0.001, 0.0, 0.0, 0.0, 0.001, 0.0, 0.0, 0.0, 0.001)", -0.056114360371, 1.02523969116, 0.128780366312, "(0.001, 0.0, 0.0, 0.0, 0.001, 0.0, 0.0, 0.0, 0.001)"
1637149070466622983, 6997, 1636512984, 543067932, base_link, -0.00595296601226, -0.0166134249106, -0.999674065116, 0.0184477598126, "(0.0005460729587704362, 0.0, 0.0, 0.0, 0.0005434876688712453, 0.0, 0.0, 0.0, 0.01166546352780884)", -0.00405224373455, 0.00445574660678, 6.51977924861e-05, "(0.001, 0.0, 0.0, 0.0, 0.001, 0.0, 0.0, 0.0, 0.001)", 0.103471364033, 0.711707602009, -0.384807259505, "(0.001, 0.0, 0.0, 0.0, 0.001, 0.0, 0.0, 0.0, 0.001)"
1637149070485080014, 6998, 1636512984, 561614990, base_link, -0.0059162270722, -0.016601818191, -0.999674780978, 0.0184312280424, "(0.0005460729587704362, 0.0, 0.0, 0.0, 0.0005434876688712453, 0.0, 0.0, 0.0, 0.01166546352780884)", -0.0035046280415, 0.00784992956663, -0.00204757035172, "(0.001, 0.0, 0.0, 0.0, 0.001, 0.0, 0.0, 0.0, 0.001)", -0.0894506159251, 1.08399183684, 0.131903976832, "(0.001, 0.0, 0.0, 0.0, 0.001, 0.0, 0.0, 0.0, 0.001)"
1637149070506171637, 6999, 1636512984, 581495046, base_link, -0.00589034560931, -0.0165868238723, -0.999675342169, 0.0184225775248, "(0.0005460729587704362, 0.0, 0.0, 0.0, 0.0005434876688712453, 0.0, 0.0, 0.0, 0.01166546352780884)", -0.00277783629505, 0.00442580314208, -0.0016065839939, "(0.001, 0.0, 0.0, 0.0, 0.001, 0.0, 0.0, 0.0, 0.001)", 0.113808393766, 0.696107409284, -0.314176308557, "(0.001, 0.0, 0.0, 0.0, 0.001, 0.0, 0.0, 0.0, 0.001)"
1637149070528171848, 7000, 1636512984, 604593038, base_link, -0.00588519023824, -0.0165704457464, -0.999675829217, 0.018412532209, "(0.0005460729587704362, 0.0, 0.0, 0.0, 0.0005434876688712453, 0.0, 0.0, 0.0, 0.01166546352780884)", -0.0035626892347, 0.00407239020722, -0.00248834595003, "(0.001, 0.0, 0.0, 0.0, 0.001, 0.0, 0.0, 0.0, 0.001)", -0.220740249275, 1.18172792513, 0.237776566416, "(0.001, 0.0, 0.0, 0.0, 0.001, 0.0, 0.0, 0.0, 0.001)"
1637149070545352428, 7001, 1636512984, 621835947, base_link, -0.00587132855835, -0.0165549819714, -0.999676395177, 0.0184001358266, "(0.0005460729587704362, 0.0, 0.0, 0.0, 0.0005434876688712453, 0.0, 0.0, 0.0, 0.01166546352780884)", -0.00272595330721, 0.00200524643712, -0.00174359651667, "(0.001, 0.0, 0.0, 0.0, 0.001, 0.0, 0.0, 0.0, 0.001)", 0.208295875633, 0.818731135322, -0.19918149346, "(0.001, 0.0, 0.0, 0.0, 0.001, 0.0, 0.0, 0.0, 0.001)"
1637149070564318588, 7002, 1636512984, 640933036, base_link, -0.00586239775202, -0.0165261638154, -0.999677385155, 0.0183750867216, "(0.0005460729587704362, 0.0, 0.0, 0.0, 0.0005434876688712453, 0.0, 0.0, 0.0, 0.01166546352780884)", -0.00554442787549, 0.00305548283623, -0.00452764930112, "(0.001, 0.0, 0.0, 0.0, 0.001, 0.0, 0.0, 0.0, 0.001)", -0.271827661775, 1.13356673068, 0.144206911542, "(0.001, 0.0, 0.0, 0.0, 0.001, 0.0, 0.0, 0.0, 0.001)"
1637149070586011859, 7003, 1636512984, 662455081, base_link, -0.00586054738257, -0.0164977869505, -0.999678178196, 0.0183580241054, "(0.0005460729587704362, 0.0, 0.0, 0.0, 0.0005434876688712453, 0.0, 0.0, 0.0, 0.01166546352780884)", -0.00433287569795, 0.000418614537855, -0.00292507797582, "(0.001, 0.0, 0.0, 0.0, 0.001, 0.0, 0.0, 0.0, 0.001)", 0.20219059078, 0.771528625738, -0.0833143199234, "(0.001, 0.0, 0.0, 0.0, 0.001, 0.0, 0.0, 0.0, 0.001)"
1637149070604821627, 7004, 1636512984, 680572032, base_link, -0.00586054738257, -0.0164977869505, -0.999678178196, 0.0183580241054, "(0.0005460729587704362, 0.0, 0.0, 0.0, 0.0005434876688712453, 0.0, 0.0, 0.0, 0.01166546352780884)", -0.00665340632865, 0.00392236228411, -0.00546498538648, "(0.001, 0.0, 0.0, 0.0, 0.001, 0.0, 0.0, 0.0, 0.001)", -0.115941681758, 1.24224858748, 0.0929933167803, "(0.001, 0.0, 0.0, 0.0, 0.001, 0.0, 0.0, 0.0, 0.001)"
1637149070625079709, 7005, 1636512984, 701647043, base_link, -0.00582030638419, -0.0164273973825, -0.999680443359, 0.0183105383294, "(0.0005460729587704362, 0.0, 0.0, 0.0, 0.0005434876688712453, 0.0, 0.0, 0.0, 0.01166546352780884)", -0.00590845442133, 0.00241298848561, -0.00360450109202, "(0.001, 0.0, 0.0, 0.0, 0.001, 0.0, 0.0, 0.0, 0.001)", 0.14916260057, 0.821024376565, -0.000442445096603, "(0.001, 0.0, 0.0, 0.0, 0.001, 0.0, 0.0, 0.0, 0.001)"
1637149070645191193, 7006, 1636512984, 721762895, base_link, -0.00580394027711, -0.0163660020666, -0.999682157007, 0.0182771227559, "(0.0005460729587704362, 0.0, 0.0, 0.0, 0.0005434876688712453, 0.0, 0.0, 0.0, 0.01166546352780884)", -0.0114754566795, 0.00395480690195, -0.00684107752634, "(0.001, 0.0, 0.0, 0.0, 0.001, 0.0, 0.0, 0.0, 0.001)", -0.111395343571, 1.14712268388, -0.0347192555598, "(0.001, 0.0, 0.0, 0.0, 0.001, 0.0, 0.0, 0.0, 0.001)"
1637149070664430710, 7007, 1636512984, 740823030, base_link, -0.00580394027711, -0.0163660020666, -0.999682157007, 0.0182771227559, "(0.0005460729587704362, 0.0, 0.0, 0.0, 0.0005434876688712453, 0.0, 0.0, 0.0, 0.01166546352780884)", -0.00553075150041, 0.003299439808, -0.00390951382263, "(0.001, 0.0, 0.0, 0.0, 0.001, 0.0, 0.0, 0.0, 0.001)", 0.185619805519, 0.801222775173, 0.0378284154261, "(0.001, 0.0, 0.0, 0.0, 0.001, 0.0, 0.0, 0.0, 0.001)"
1637149070684595726, 7008, 1636512984, 761090040, base_link, -0.00576989124452, -0.0162846251139, -0.999684712804, 0.0182207114345, "(0.0005460729587704362, 0.0, 0.0, 0.0, 0.0005434876688712453, 0.0, 0.0, 0.0, 0.01166546352780884)", -0.0115836474091, 0.00459944412015, -0.00728413465909, "(0.001, 0.0, 0.0, 0.0, 0.001, 0.0, 0.0, 0.0, 0.001)", -0.0872327788814, 1.14602805561, -0.0788845227883, "(0.001, 0.0, 0.0, 0.0, 0.001, 0.0, 0.0, 0.0, 0.001)"
1637149070706737332, 7009, 1636512984, 782299995, base_link, -0.00574242876497, -0.016252112819, -0.999685944944, 0.0181907894864, "(0.0005460729587704362, 0.0, 0.0, 0.0, 0.0005434876688712453, 0.0, 0.0, 0.0, 0.01166546352780884)", -0.0061130889719, 0.00296126267484, -0.00475178832327, "(0.001, 0.0, 0.0, 0.0, 0.001, 0.0, 0.0, 0.0, 0.001)", 0.154710273539, 0.714311885867, 0.145555797532, "(0.001, 0.0, 0.0, 0.0, 0.001, 0.0, 0.0, 0.0, 0.001)"
1637149070726230358, 7010, 1636512984, 802099943, base_link, -0.00574204212324, -0.0162106781616, -0.999687285948, 0.0181541504991, "(0.0005460729587704362, 0.0, 0.0, 0.0, 0.0005434876688712453, 0.0, 0.0, 0.0, 0.01166546352780884)", -0.00963867600658, 0.0029520112705, -0.00822254277978, "(0.001, 0.0, 0.0, 0.0, 0.001, 0.0, 0.0, 0.0, 0.001)", -0.0900166344835, 1.04090123828, -0.239851649859, "(0.001, 0.0, 0.0, 0.0, 0.001, 0.0, 0.0, 0.0, 0.001)"
1637149070744880874, 7011, 1636512984, 821332931, base_link, -0.0057202661924, -0.0161915343753, -0.999688220487, 0.0181266265381, "(0.0005460729587704362, 0.0, 0.0, 0.0, 0.0005434876688712453, 0.0, 0.0, 0.0, 0.01166546352780884)", -0.0045114159713, 0.00207469918678, -0.00463938715386, "(0.001, 0.0, 0.0, 0.0, 0.001, 0.0, 0.0, 0.0, 0.001)", 0.213725785635, 0.70140196053, 0.185862961279, "(0.001, 0.0, 0.0, 0.0, 0.001, 0.0, 0.0, 0.0, 0.001)"
1637149070765536716, 7012, 1636512984, 842000961, base_link, -0.00570343757405, -0.0161510604658, -0.999689681838, 0.0180874009042, "(0.0005460729587704362, 0.0, 0.0, 0.0, 0.0005434876688712453, 0.0, 0.0, 0.0, 0.01166546352780884)", -0.00835052344927, 0.00480819199223, -0.00859921006298, "(0.001, 0.0, 0.0, 0.0, 0.001, 0.0, 0.0, 0.0, 0.001)", 0.0373184911009, 0.927467151601, -0.30500028811, "(0.001, 0.0, 0.0, 0.0, 0.001, 0.0, 0.0, 0.0, 0.001)"
1637149070785215090, 7013, 1636512984, 861675977, base_link, -0.00566981431903, -0.0161359840591, -0.999690825673, 0.0180481657974, "(0.0005460729587704362, 0.0, 0.0, 0.0, 0.0005434876688712453, 0.0, 0.0, 0.0, 0.01166546352780884)", -0.00336375034685, 0.00395995403582, -0.00585302193432, "(0.001, 0.0, 0.0, 0.0, 0.001, 0.0, 0.0, 0.0, 0.001)", 0.164759821206, 0.627391380151, 0.20630842054, "(0.001, 0.0, 0.0, 0.0, 0.001, 0.0, 0.0, 0.0, 0.001)"
1637149070804933124, 7014, 1636512984, 881139039, base_link, -0.0056596288838, -0.0161084195542, -0.999692139096, 0.0180031788655, "(0.0005460729587704362, 0.0, 0.0, 0.0, 0.0005434876688712453, 0.0, 0.0, 0.0, 0.01166546352780884)", -0.0062918932719, 0.00485850601709, -0.0101975516304, "(0.001, 0.0, 0.0, 0.0, 0.001, 0.0, 0.0, 0.0, 0.001)", -0.0135550737578, 1.09619907764, -0.36602417095, "(0.001, 0.0, 0.0, 0.0, 0.001, 0.0, 0.0, 0.0, 0.001)"
1637149070824785860, 7015, 1636512984, 901289939, base_link, -0.00563931828429, -0.0160906041227, -0.99969341386, 0.0179546326124, "(0.0005460729587704362, 0.0, 0.0, 0.0, 0.0005434876688712453, 0.0, 0.0, 0.0, 0.01166546352780884)", -0.00253279336757, 0.00261187147581, -0.00729997077304, "(0.001, 0.0, 0.0, 0.0, 0.001, 0.0, 0.0, 0.0, 0.001)", -0.0323544703362, 0.634378348418, 0.251654577188, "(0.001, 0.0, 0.0, 0.0, 0.001, 0.0, 0.0, 0.0, 0.001)"
1637149070844342907, 7016, 1636512984, 920821905, base_link, -0.00563436793401, -0.0160683631771, -0.999694917055, 0.0178923004892, "(0.0005460729587704362, 0.0, 0.0, 0.0, 0.0005434876688712453, 0.0, 0.0, 0.0, 0.01166546352780884)", -0.00569528930377, 0.00275918450662, -0.0131931682089, "(0.001, 0.0, 0.0, 0.0, 0.001, 0.0, 0.0, 0.0, 0.001)", 0.050561317341, 1.13566127768, -0.362933555604, "(0.001, 0.0, 0.0, 0.0, 0.001, 0.0, 0.0, 0.0, 0.001)"
1637149070865237725, 7017, 1636512984, 941720008, base_link, -0.0056071476275, -0.0160348746571, -0.999696832205, 0.0178237585584, "(0.0005460729587704362, 0.0, 0.0, 0.0, 0.0005434876688712453, 0.0, 0.0, 0.0, 0.01166546352780884)", -0.0038908407448, 0.00302257254399, -0.0101264386192, "(0.001, 0.0, 0.0, 0.0, 0.001, 0.0, 0.0, 0.0, 0.001)", -0.113997323806, 0.712093669877, 0.35997035917, "(0.001, 0.0, 0.0, 0.0, 0.001, 0.0, 0.0, 0.0, 0.001)"
1637149070887921305, 7018, 1636512984, 962332963, base_link, -0.00560829088326, -0.0160052177968, -0.999698656097, 0.01774759348, "(0.0005460729587704362, 0.0, 0.0, 0.0, 0.0005434876688712453, 0.0, 0.0, 0.0, 0.01166546352780884)", -0.00751405222859, 0.0022285867751, -0.0172626975598, "(0.001, 0.0, 0.0, 0.0, 0.001, 0.0, 0.0, 0.0, 0.001)", 0.0415570559305, 1.10740399187, -0.401660530754, "(0.001, 0.0, 0.0, 0.0, 0.001, 0.0, 0.0, 0.0, 0.001)"
1637149070904786782, 7019, 1636512984, 981317043, base_link, -0.00557285999759, -0.0159628650567, -0.999701224127, 0.0176519871412, "(0.0005460729587704362, 0.0, 0.0, 0.0, 0.0005434876688712453, 0.0, 0.0, 0.0, 0.01166546352780884)", -0.00546249916448, 0.00338374517351, -0.0137069540593, "(0.001, 0.0, 0.0, 0.0, 0.001, 0.0, 0.0, 0.0, 0.001)", -0.112661675312, 0.721739426978, 0.388829744635, "(0.001, 0.0, 0.0, 0.0, 0.001, 0.0, 0.0, 0.0, 0.001)"
1637149070925141457, 7020, 1636512985, 1674890, base_link, -0.00556891750043, -0.0159196597888, -0.999703614285, 0.0175566276792, "(0.0005460729587704362, 0.0, 0.0, 0.0, 0.0005434876688712453, 0.0, 0.0, 0.0, 0.01166546352780884)", -0.0105523932457, 0.00360671188546, -0.0223710671689, "(0.001, 0.0, 0.0, 0.0, 0.001, 0.0, 0.0, 0.0, 0.001)", 0.0642014888642, 1.19175174029, -0.3345690713, "(0.001, 0.0, 0.0, 0.0, 0.001, 0.0, 0.0, 0.0, 0.001)"
1637149070945568545, 7021, 1636512985, 22042036, base_link, -0.00554765528155, -0.015872934085, -0.999706437289, 0.0174445615212, "(0.0005460729587704362, 0.0, 0.0, 0.0, 0.0005434876688712453, 0.0, 0.0, 0.0, 0.01166546352780884)", -0.00648086554443, 0.00266754832639, -0.0165816783159, "(0.001, 0.0, 0.0, 0.0, 0.001, 0.0, 0.0, 0.0, 0.001)", -0.224251512152, 0.748751885606, 0.348158248637, "(0.001, 0.0, 0.0, 0.0, 0.001, 0.0, 0.0, 0.0, 0.001)"
1637149070964263085, 7022, 1636512985, 40762901, base_link, -0.00553862235807, -0.015834369725, -0.999709010979, 0.0173346406109, "(0.0005460729587704362, 0.0, 0.0, 0.0, 0.0005434876688712453, 0.0, 0.0, 0.0, 0.01166546352780884)", -0.0106029035529, 0.00294818680702, -0.0262705011676, "(0.001, 0.0, 0.0, 0.0, 0.001, 0.0, 0.0, 0.0, 0.001)", 0.243755999442, 1.12601399267, -0.403609529703, "(0.001, 0.0, 0.0, 0.0, 0.001, 0.0, 0.0, 0.0, 0.001)"
1637149070985002707, 7023, 1636512985, 61650037, base_link, -0.00552051944508, -0.0157748767032, -0.999712136047, 0.0172140108978, "(0.0005460729587704362, 0.0, 0.0, 0.0, 0.0005434876688712453, 0.0, 0.0, 0.0, 0.01166546352780884)", -0.0080422333767, 0.00238954761603, -0.0183491005408, "(0.001, 0.0, 0.0, 0.0, 0.001, 0.0, 0.0, 0.0, 0.001)", -0.268470055935, 0.714430306663, 0.301964809286, "(0.001, 0.0, 0.0, 0.0, 0.001, 0.0, 0.0, 0.0, 0.001)"
1637149071008493206, 7024, 1636512985, 81700086, base_link, -0.00551901913225, -0.0157323232646, -0.999714786546, 0.0170991226295, "(0.0005460729587704362, 0.0, 0.0, 0.0, 0.0005434876688712453, 0.0, 0.0, 0.0, 0.01166546352780884)", -0.011906025886, 0.00120733476701, -0.0278719032966, "(0.001, 0.0, 0.0, 0.0, 0.001, 0.0, 0.0, 0.0, 0.001)", 0.355799901993, 1.01545754167, -0.200819029711, "(0.001, 0.0, 0.0, 0.0, 0.001, 0.0, 0.0, 0.0, 0.001)"
1637149071024700980, 7025, 1636512985, 101224899, base_link, -0.00550427530411, -0.0156871332268, -0.999717875124, 0.0169642848784, "(0.0005460729587704362, 0.0, 0.0, 0.0, 0.0005434876688712453, 0.0, 0.0, 0.0, 0.01166546352780884)", -0.00763506999439, 0.00213742759049, -0.0203260969372, "(0.001, 0.0, 0.0, 0.0, 0.001, 0.0, 0.0, 0.0, 0.001)", -0.240766264272, 0.657422845106, 0.310252216525, "(0.001, 0.0, 0.0, 0.0, 0.001, 0.0, 0.0, 0.0, 0.001)"
1637149071044463791, 7026, 1636512985, 120747089, base_link, -0.00551570855488, -0.0156372655683, -0.999720701579, 0.0168395878664, "(0.0005460729587704362, 0.0, 0.0, 0.0, 0.0005434876688712453, 0.0, 0.0, 0.0, 0.01166546352780884)", -0.0115897136308, -0.00077683050038, -0.0301388460666, "(0.001, 0.0, 0.0, 0.0, 0.001, 0.0, 0.0, 0.0, 0.001)", 0.321727243741, 1.06873524927, -0.0822133341629, "(0.001, 0.0, 0.0, 0.0, 0.001, 0.0, 0.0, 0.0, 0.001)"
1637149071064995751, 7027, 1636512985, 141505956, base_link, -0.00550987835722, -0.0155839572503, -0.999723907136, 0.0167000304752, "(0.0005460729587704362, 0.0, 0.0, 0.0, 0.0005434876688712453, 0.0, 0.0, 0.0, 0.01166546352780884)", -0.0082915070128, 0.000543544112286, -0.0216784762222, "(0.001, 0.0, 0.0, 0.0, 0.001, 0.0, 0.0, 0.0, 0.001)", -0.224827226508, 0.644751885567, 0.226850252018, "(0.001, 0.0, 0.0, 0.0, 0.001, 0.0, 0.0, 0.0, 0.001)"
1637149071084459406, 7028, 1636512985, 160839080, base_link, -0.00552773217398, -0.0155381931676, -0.999726728204, 0.0165673668375, "(0.0005460729587704362, 0.0, 0.0, 0.0, 0.0005434876688712453, 0.0, 0.0, 0.0, 0.01166546352780884)", -0.0122728323352, -0.00266164805942, -0.0319263045652, "(0.001, 0.0, 0.0, 0.0, 0.001, 0.0, 0.0, 0.0, 0.001)", 0.299171265696, 0.932223620766, -0.107365553043, "(0.001, 0.0, 0.0, 0.0, 0.001, 0.0, 0.0, 0.0, 0.001)"
1637149071106245977, 7029, 1636512985, 181755065, base_link, -0.00551090045761, -0.015470717818, -0.999730279717, 0.0164211657369, "(0.0005460729587704362, 0.0, 0.0, 0.0, 0.0005434876688712453, 0.0, 0.0, 0.0, 0.01166546352780884)", -0.00916884441095, 0.00106950771295, -0.02266622198, "(0.001, 0.0, 0.0, 0.0, 0.001, 0.0, 0.0, 0.0, 0.001)", -0.115032509537, 0.638804968663, 0.179978080946, "(0.001, 0.0, 0.0, 0.0, 0.001, 0.0, 0.0, 0.0, 0.001)"
1637149071125440513, 7030, 1636512985, 202038049, base_link, -0.0055127399554, -0.0154271410698, -0.999733444377, 0.0162681655418, "(0.0005460729587704362, 0.0, 0.0, 0.0, 0.0005434876688712453, 0.0, 0.0, 0.0, 0.01166546352780884)", -0.0127016147719, -0.000197476127047, -0.0353699323369, "(0.001, 0.0, 0.0, 0.0, 0.001, 0.0, 0.0, 0.0, 0.001)", 0.255562212565, 0.914997086194, -0.118962563773, "(0.001, 0.0, 0.0, 0.0, 0.001, 0.0, 0.0, 0.0, 0.001)"
1637149071145007294, 7031, 1636512985, 221438884, base_link, -0.00550187523849, -0.0153620562229, -0.999737196528, 0.0161020022587, "(0.0005460729587704362, 0.0, 0.0, 0.0, 0.0005434876688712453, 0.0, 0.0, 0.0, 0.01166546352780884)", -0.00949116945555, 0.00158194942428, -0.0256351820445, "(0.001, 0.0, 0.0, 0.0, 0.001, 0.0, 0.0, 0.0, 0.001)", -0.165707218063, 0.686443193539, 0.108601781576, "(0.001, 0.0, 0.0, 0.0, 0.001, 0.0, 0.0, 0.0, 0.001)"
1637149071164951308, 7032, 1636512985, 241404056, base_link, -0.0054842425366, -0.0152995406171, -0.999740955389, 0.0159332751686, "(0.0005460729587704362, 0.0, 0.0, 0.0, 0.0005434876688712453, 0.0, 0.0, 0.0, 0.01166546352780884)", -0.0149699558059, 0.00251630732747, -0.039382744801, "(0.001, 0.0, 0.0, 0.0, 0.001, 0.0, 0.0, 0.0, 0.001)", 0.208025052607, 0.901044774551, -0.00325519802389, "(0.001, 0.0, 0.0, 0.0, 0.001, 0.0, 0.0, 0.0, 0.001)"
1637149071185896272, 7033, 1636512985, 262428045, base_link, -0.00547928176082, -0.0152400167421, -0.999744829342, 0.0157478749522, "(0.0005460729587704362, 0.0, 0.0, 0.0, 0.0005434876688712453, 0.0, 0.0, 0.0, 0.01166546352780884)", -0.00969296891852, 0.00159119152366, -0.0286829673696, "(0.001, 0.0, 0.0, 0.0, 0.001, 0.0, 0.0, 0.0, 0.001)", -0.23097816143, 0.58075678637, -0.0028769338646, "(0.001, 0.0, 0.0, 0.0, 0.001, 0.0, 0.0, 0.0, 0.001)"
1637149071204795390, 7034, 1636512985, 280694961, base_link, -0.00545864740764, -0.0151772902884, -0.999748781968, 0.0155636108303, "(0.0005460729587704362, 0.0, 0.0, 0.0, 0.0005434876688712453, 0.0, 0.0, 0.0, 0.01166546352780884)", -0.0151480347322, 0.00263586318091, -0.043441317392, "(0.001, 0.0, 0.0, 0.0, 0.001, 0.0, 0.0, 0.0, 0.001)", 0.18095307996, 1.00347011176, 0.0677455619825, "(0.001, 0.0, 0.0, 0.0, 0.001, 0.0, 0.0, 0.0, 0.001)"
1637149071228577931, 7035, 1636512985, 305111885, base_link, -0.00546556637425, -0.0151017017051, -0.999753147414, 0.0153528637421, "(0.0005460729587704362, 0.0, 0.0, 0.0, 0.0005434876688712453, 0.0, 0.0, 0.0, 0.01166546352780884)", -0.0114818318592, 0.00057670232752, -0.0320810645496, "(0.001, 0.0, 0.0, 0.0, 0.001, 0.0, 0.0, 0.0, 0.001)", -0.240323456878, 0.618986626875, -0.15136705978, "(0.001, 0.0, 0.0, 0.0, 0.001, 0.0, 0.0, 0.0, 0.001)"
1637149071246352895, 7036, 1636512985, 322894096, base_link, -0.00546750068882, -0.0150588039871, -0.999756918872, 0.0151473438822, "(0.0007967716013573267, 0.0, 0.0, 0.0, 0.000794146276964728, 0.0, 0.0, 0.0, 0.011962928110762994)", -0.0137087920796, -0.00151853359612, -0.0487610680844, "(0.001, 0.0, 0.0, 0.0, 0.001, 0.0, 0.0, 0.0, 0.001)", 0.210412788242, 0.980127270601, 0.0618410018745, "(0.001, 0.0, 0.0, 0.0, 0.001, 0.0, 0.0, 0.0, 0.001)"
1637149071264471953, 7037, 1636512985, 341008901, base_link, -0.00547215759183, -0.0149949804485, -0.999761092059, 0.0149320078041, "(0.0007947170557672002, 0.0, 0.0, 0.0, 0.0007919159507569808, 0.0, 0.0, 0.0, 0.011962150700656204)", -0.00983027274867, -0.000380973656648, -0.0338771456935, "(0.001, 0.0, 0.0, 0.0, 0.001, 0.0, 0.0, 0.0, 0.001)", -0.118800087232, 0.630886319389, -0.210148630276, "(0.001, 0.0, 0.0, 0.0, 0.001, 0.0, 0.0, 0.0, 0.001)"
1637149071284402035, 7038, 1636512985, 361017942, base_link, -0.00546219314828, -0.0149607200995, -0.999764829184, 0.0147182752418, "(0.0007947170557672002, 0.0, 0.0, 0.0, 0.0007919159507569808, 0.0, 0.0, 0.0, 0.011962150700656204)", -0.011295935714, -0.000456677582654, -0.051063834413, "(0.001, 0.0, 0.0, 0.0, 0.001, 0.0, 0.0, 0.0, 0.001)", 0.309808050522, 0.77400621679, -0.0126649580075, "(0.001, 0.0, 0.0, 0.0, 0.001, 0.0, 0.0, 0.0, 0.001)"
1637149071305938607, 7039, 1636512985, 381503105, base_link, -0.0054570654441, -0.0149094070771, -0.999768861068, 0.0144967050335, "(0.0007947170557672002, 0.0, 0.0, 0.0, 0.0007919159507569808, 0.0, 0.0, 0.0, 0.011962150700656204)", -0.00796586933683, 0.000852595464272, -0.0350731870086, "(0.001, 0.0, 0.0, 0.0, 0.001, 0.0, 0.0, 0.0, 0.001)", -0.00494914422539, 0.641765780732, -0.283676466209, "(0.001, 0.0, 0.0, 0.0, 0.001, 0.0, 0.0, 0.0, 0.001)"
1637149071324098127, 7040, 1636512985, 400619983, base_link, -0.0054156170084, -0.0148817379132, -0.999772630294, 0.0142790995552, "(0.0007947170557672002, 0.0, 0.0, 0.0, 0.0007919159507569808, 0.0, 0.0, 0.0, 0.011962150700656204)", -0.00893094542684, 0.00500573235152, -0.0523755377615, "(0.001, 0.0, 0.0, 0.0, 0.001, 0.0, 0.0, 0.0, 0.001)", 0.341321394806, 0.821848868948, 0.0658266170041, "(0.001, 0.0, 0.0, 0.0, 0.001, 0.0, 0.0, 0.0, 0.001)"
1637149071345097171, 7041, 1636512985, 421557903, base_link, -0.00541282923757, -0.0148517162673, -0.999776220464, 0.0140583355392, "(0.0007947170557672002, 0.0, 0.0, 0.0, 0.0007919159507569808, 0.0, 0.0, 0.0, 0.011962150700656204)", -0.00538803003805, 0.00224743560421, -0.0353020507466, "(0.001, 0.0, 0.0, 0.0, 0.001, 0.0, 0.0, 0.0, 0.001)", -0.0864306450584, 0.617756237175, -0.408647473257, "(0.001, 0.0, 0.0, 0.0, 0.001, 0.0, 0.0, 0.0, 0.001)"
1637149071364428102, 7042, 1636512985, 440813064, base_link, -0.00538427960696, -0.0148266747688, -0.999779705805, 0.0138462669335, "(0.0007947170557672002, 0.0, 0.0, 0.0, 0.0007919159507569808, 0.0, 0.0, 0.0, 0.011962150700656204)", -0.00683363951899, 0.00364378671993, -0.0514469227417, "(0.001, 0.0, 0.0, 0.0, 0.001, 0.0, 0.0, 0.0, 0.001)", 0.237452701154, 0.984875699004, 0.111576542464, "(0.001, 0.0, 0.0, 0.0, 0.001, 0.0, 0.0, 0.0, 0.001)"
1637149071387354489, 7043, 1636512985, 461406946, base_link, -0.00537720591316, -0.0147855232352, -0.999783257602, 0.0136349469025, "(0.0007947170557672002, 0.0, 0.0, 0.0, 0.0007919159507569808, 0.0, 0.0, 0.0, 0.011962150700656204)", -0.00600066222275, 0.00217576386272, -0.0342365250504, "(0.001, 0.0, 0.0, 0.0, 0.001, 0.0, 0.0, 0.0, 0.001)", -0.00941455987639, 0.62107521902, -0.41340832668, "(0.001, 0.0, 0.0, 0.0, 0.001, 0.0, 0.0, 0.0, 0.001)"
1637149071407073568, 7044, 1636512985, 482026100, base_link, -0.00537720591316, -0.0147855232352, -0.999783257602, 0.0136349469025, "(0.0007947170557672002, 0.0, 0.0, 0.0, 0.0007919159507569808, 0.0, 0.0, 0.0, 0.011962150700656204)", -0.00560771726068, 0.00347033595661, -0.0507044325155, "(0.001, 0.0, 0.0, 0.0, 0.001, 0.0, 0.0, 0.0, 0.001)", 0.129615284994, 1.05385476575, 0.282062107862, "(0.001, 0.0, 0.0, 0.0, 0.001, 0.0, 0.0, 0.0, 0.001)"
1637149071424583119, 7045, 1636512985, 501092910, base_link, -0.00535316918651, -0.0147448172771, -0.999789876973, 0.0131960541638, "(0.0007947170557672002, 0.0, 0.0, 0.0, 0.0007919159507569808, 0.0, 0.0, 0.0, 0.011962150700656204)", -0.00486915233522, 0.000849998143331, -0.035651330722, "(0.001, 0.0, 0.0, 0.0, 0.001, 0.0, 0.0, 0.0, 0.001)", 0.106918020748, 0.707566056015, -0.390170411227, "(0.001, 0.0, 0.0, 0.0, 0.001, 0.0, 0.0, 0.0, 0.001)"
1637149071445171821, 7046, 1636512985, 521651029, base_link, -0.00532735332256, -0.0147132478488, -0.999793393317, 0.0129734468941, "(0.0007947170557672002, 0.0, 0.0, 0.0, 0.0007919159507569808, 0.0, 0.0, 0.0, 0.011962150700656204)", -0.00656417646462, 0.00324081855198, -0.0529673993002, "(0.001, 0.0, 0.0, 0.0, 0.001, 0.0, 0.0, 0.0, 0.001)", -0.00697312779562, 1.02303163692, 0.294522889068, "(0.001, 0.0, 0.0, 0.0, 0.001, 0.0, 0.0, 0.0, 0.001)"
1637149071464871477, 7047, 1636512985, 541430950, base_link, -0.0053190053283, -0.0146849325108, -0.9997967582, 0.0127476755237, "(0.0007947170557672002, 0.0, 0.0, 0.0, 0.0007919159507569808, 0.0, 0.0, 0.0, 0.011962150700656204)", -0.00518237996266, 0.00165206219479, -0.0362752592661, "(0.001, 0.0, 0.0, 0.0, 0.001, 0.0, 0.0, 0.0, 0.001)", 0.24674918631, 0.675649712255, -0.374464353023, "(0.001, 0.0, 0.0, 0.0, 0.001, 0.0, 0.0, 0.0, 0.001)"
1637149071484359759, 7048, 1636512985, 560843944, base_link, -0.00528859719439, -0.0146651087688, -0.999800088464, 0.0125199214352, "(0.0007947170557672002, 0.0, 0.0, 0.0, 0.0007919159507569808, 0.0, 0.0, 0.0, 0.011962150700656204)", -0.0057339599574, 0.00507381074142, -0.0539456304916, "(0.001, 0.0, 0.0, 0.0, 0.001, 0.0, 0.0, 0.0, 0.001)", -0.0834695187244, 1.00502442441, 0.347359734338, "(0.001, 0.0, 0.0, 0.0, 0.001, 0.0, 0.0, 0.0, 0.001)"
1637149071505539571, 7049, 1636512985, 581334114, base_link, -0.00528725753582, -0.0146403208172, -0.999803389325, 0.0122836723974, "(0.0007947170557672002, 0.0, 0.0, 0.0, 0.0007919159507569808, 0.0, 0.0, 0.0, 0.011962150700656204)", -0.0043532392447, 0.000813055947778, -0.0374002106385, "(0.001, 0.0, 0.0, 0.0, 0.001, 0.0, 0.0, 0.0, 0.001)", 0.0988124013977, 0.585878414408, -0.424335893908, "(0.001, 0.0, 0.0, 0.0, 0.001, 0.0, 0.0, 0.0, 0.001)"
1637149071524239105, 7050, 1636512985, 600785017, base_link, -0.0052911805243, -0.0146306573791, -0.999806453802, 0.0120416863482, "(0.0007947170557672002, 0.0, 0.0, 0.0, 0.0007919159507569808, 0.0, 0.0, 0.0, 0.011962150700656204)", -0.00407840237283, -0.000718840914284, -0.0567856794592, "(0.001, 0.0, 0.0, 0.0, 0.001, 0.0, 0.0, 0.0, 0.001)", -0.27375351534, 0.97990646026, 0.312780384141, "(0.001, 0.0, 0.0, 0.0, 0.001, 0.0, 0.0, 0.0, 0.001)"
1637149071545149483, 7051, 1636512985, 621663093, base_link, -0.0053320517275, -0.01462346865, -0.999809234268, 0.0117990872928, "(0.0007947170557672002, 0.0, 0.0, 0.0, 0.0007919159507569808, 0.0, 0.0, 0.0, 0.011962150700656204)", -0.00216199275368, -0.00440251842654, -0.0389086931968, "(0.001, 0.0, 0.0, 0.0, 0.001, 0.0, 0.0, 0.0, 0.001)", 0.131500640087, 0.755720977323, -0.386950864818, "(0.001, 0.0, 0.0, 0.0, 0.001, 0.0, 0.0, 0.0, 0.001)"
1637149071564289303, 7052, 1636512985, 640820980, base_link, -0.0053279133343, -0.0146112352813, -0.999812576357, 0.0115298439134, "(0.0007947170557672002, 0.0, 0.0, 0.0, 0.0007919159507569808, 0.0, 0.0, 0.0, 0.011962150700656204)", -0.00274046221846, -0.00385831762147, -0.0612669565232, "(0.001, 0.0, 0.0, 0.0, 0.001, 0.0, 0.0, 0.0, 0.001)", -0.222853365385, 0.877503802438, 0.24637825662, "(0.001, 0.0, 0.0, 0.0, 0.001, 0.0, 0.0, 0.0, 0.001)"
1637149071585980020, 7053, 1636512985, 662528991, base_link, -0.00534365308154, -0.014610698732, -0.999815605772, 0.0112573224786, "(0.0007947170557672002, 0.0, 0.0, 0.0, 0.0007919159507569808, 0.0, 0.0, 0.0, 0.011962150700656204)", -0.00101623729098, -0.00237368796933, -0.0429522837939, "(0.001, 0.0, 0.0, 0.0, 0.001, 0.0, 0.0, 0.0, 0.001)", 0.320207842568, 0.729216710436, -0.392247412063, "(0.001, 0.0, 0.0, 0.0, 0.001, 0.0, 0.0, 0.0, 0.001)"
1637149071604894820, 7054, 1636512985, 681260108, base_link, -0.00534743668715, -0.014588721939, -0.999819191167, 0.0109617100585, "(0.0007947170557672002, 0.0, 0.0, 0.0, 0.0007919159507569808, 0.0, 0.0, 0.0, 0.011962150700656204)", -0.00359467436882, -0.00263773994663, -0.0675773181024, "(0.001, 0.0, 0.0, 0.0, 0.001, 0.0, 0.0, 0.0, 0.001)", -0.434353696294, 0.980841830609, 0.248300596952, "(0.001, 0.0, 0.0, 0.0, 0.001, 0.0, 0.0, 0.0, 0.001)"
1637149071624129168, 7055, 1636512985, 700716972, base_link, -0.00537701096372, -0.0145863055107, -0.999822240883, 0.0106683682464, "(0.0007947170557672002, 0.0, 0.0, 0.0, 0.0007919159507569808, 0.0, 0.0, 0.0, 0.011962150700656204)", -0.00166343357021, -0.00412806463414, -0.0467973048672, "(0.001, 0.0, 0.0, 0.0, 0.001, 0.0, 0.0, 0.0, 0.001)", 0.227032545438, 0.644282979666, -0.263436661188, "(0.001, 0.0, 0.0, 0.0, 0.001, 0.0, 0.0, 0.0, 0.001)"
1637149071644430213, 7056, 1636512985, 720927000, base_link, -0.00542703836334, -0.0145820079099, -0.999825391667, 0.0103488394389, "(0.0007947170557672002, 0.0, 0.0, 0.0, 0.0007919159507569808, 0.0, 0.0, 0.0, 0.011962150700656204)", -0.000989676270478, -0.00937532650281, -0.0732787982204, "(0.001, 0.0, 0.0, 0.0, 0.001, 0.0, 0.0, 0.0, 0.001)", -0.727718248346, 1.11028812355, 0.128810280162, "(0.001, 0.0, 0.0, 0.0, 0.001, 0.0, 0.0, 0.0, 0.001)"
1637149071664468483, 7057, 1636512985, 740978002, base_link, -0.00548872638314, -0.0145838080373, -0.999828242099, 0.0100335799818, "(0.0007947170557672002, 0.0, 0.0, 0.0, 0.0007919159507569808, 0.0, 0.0, 0.0, 0.011962150700656204)", -0.00116406906636, -0.00997065903733, -0.0500754560853, "(0.001, 0.0, 0.0, 0.0, 0.001, 0.0, 0.0, 0.0, 0.001)", 0.128683269916, 0.685009433471, -0.220851800908, "(0.001, 0.0, 0.0, 0.0, 0.001, 0.0, 0.0, 0.0, 0.001)"
1637149071684387979, 7058, 1636512985, 760831117, base_link, -0.00557580987251, -0.0145762204505, -0.999831216664, 0.00969444818373, "(0.0007947170557672002, 0.0, 0.0, 0.0, 0.0007919159507569808, 0.0, 0.0, 0.0, 0.011962150700656204)", -0.00111151606101, -0.0181490395188, -0.078426775388, "(0.001, 0.0, 0.0, 0.0, 0.001, 0.0, 0.0, 0.0, 0.001)", -0.472303007234, 1.04857481199, -0.0216662348148, "(0.001, 0.0, 0.0, 0.0, 0.001, 0.0, 0.0, 0.0, 0.001)"
1637149071706462141, 7059, 1636512985, 782437086, base_link, -0.00565127707176, -0.0145937133882, -0.999833642449, 0.00936877924848, "(0.0007947170557672002, 0.0, 0.0, 0.0, 0.0007919159507569808, 0.0, 0.0, 0.0, 0.011962150700656204)", 0.000555456552466, -0.0134356091139, -0.0522702683065, "(0.001, 0.0, 0.0, 0.0, 0.001, 0.0, 0.0, 0.0, 0.001)", 0.209863727086, 0.644703107546, -0.0196719350343, "(0.001, 0.0, 0.0, 0.0, 0.001, 0.0, 0.0, 0.0, 0.001)"
1637149071728223630, 7060, 1636512985, 802143096, base_link, -0.00573052618061, -0.0145988676151, -0.999836218912, 0.00903158264327, "(0.0007947170557672002, 0.0, 0.0, 0.0, 0.0007919159507569808, 0.0, 0.0, 0.0, 0.011962150700656204)", 0.00105924370739, -0.0192954433779, -0.0794806443482, "(0.001, 0.0, 0.0, 0.0, 0.001, 0.0, 0.0, 0.0, 0.001)", -0.187361301611, 1.01034288238, -0.0617550560926, "(0.001, 0.0, 0.0, 0.0, 0.001, 0.0, 0.0, 0.0, 0.001)"
1637149071745562632, 7061, 1636512985, 821999073, base_link, -0.00580732374802, -0.0146286891571, -0.999838210734, 0.00870797336692, "(0.0007947170557672002, 0.0, 0.0, 0.0, 0.0007919159507569808, 0.0, 0.0, 0.0, 0.011962150700656204)", 0.00279808811185, -0.01356225682, -0.0523155855379, "(0.001, 0.0, 0.0, 0.0, 0.001, 0.0, 0.0, 0.0, 0.001)", 0.110278712087, 0.714744759517, 0.0787588767176, "(0.001, 0.0, 0.0, 0.0, 0.001, 0.0, 0.0, 0.0, 0.001)"
1637149071765243378, 7062, 1636512985, 841743946, base_link, -0.00589245840932, -0.0146354877155, -0.999840396123, 0.00838234535236, "(0.0007947170557672002, 0.0, 0.0, 0.0, 0.0007919159507569808, 0.0, 0.0, 0.0, 0.011962150700656204)", 0.00242585785532, -0.0207487931777, -0.0782244005716, "(0.001, 0.0, 0.0, 0.0, 0.001, 0.0, 0.0, 0.0, 0.001)", 0.251555490188, 0.905149617096, -0.35490927759, "(0.001, 0.0, 0.0, 0.0, 0.001, 0.0, 0.0, 0.0, 0.001)"
1637149071784854263, 7063, 1636512985, 861372947, base_link, -0.00595517448654, -0.0146749366696, -0.999842017206, 0.00806986746476, "(0.0007947170557672002, 0.0, 0.0, 0.0, 0.0007919159507569808, 0.0, 0.0, 0.0, 0.011962150700656204)", 0.0044033060816, -0.0123393248722, -0.0503917070541, "(0.001, 0.0, 0.0, 0.0, 0.001, 0.0, 0.0, 0.0, 0.001)", 0.223244187242, 0.621696180504, 0.186816631827, "(0.001, 0.0, 0.0, 0.0, 0.001, 0.0, 0.0, 0.0, 0.001)"
1637149071805714771, 7064, 1636512985, 881925106, base_link, -0.00603509016687, -0.0147076899934, -0.999843466108, 0.00776561793337, "(0.0007947170557672002, 0.0, 0.0, 0.0, 0.0007919159507569808, 0.0, 0.0, 0.0, 0.011962150700656204)", 0.00681514856273, -0.0185592628408, -0.0746780703772, "(0.001, 0.0, 0.0, 0.0, 0.001, 0.0, 0.0, 0.0, 0.001)", 0.507636826391, 0.942755373373, -0.489602871904, "(0.001, 0.0, 0.0, 0.0, 0.001, 0.0, 0.0, 0.0, 0.001)"
1637149071824746921, 7065, 1636512985, 901204109, base_link, -0.00608968119451, -0.0147610637552, -0.999844605934, 0.00746932158757, "(0.0007947170557672002, 0.0, 0.0, 0.0, 0.0007919159507569808, 0.0, 0.0, 0.0, 0.011962150700656204)", 0.0073776956328, -0.0113661004494, -0.0475910971924, "(0.001, 0.0, 0.0, 0.0, 0.001, 0.0, 0.0, 0.0, 0.001)", 0.206487998842, 0.713696087273, 0.307968980654, "(0.001, 0.0, 0.0, 0.0, 0.001, 0.0, 0.0, 0.0, 0.001)"
1637149071844161012, 7066, 1636512985, 920598030, base_link, -0.00615402612882, -0.0147836932548, -0.999846104865, 0.00716498161181, "(0.0007947170557672002, 0.0, 0.0, 0.0, 0.0007919159507569808, 0.0, 0.0, 0.0, 0.011962150700656204)", 0.00693916411037, -0.0167550597935, -0.0725717430547, "(0.001, 0.0, 0.0, 0.0, 0.001, 0.0, 0.0, 0.0, 0.001)", 0.384513921031, 1.09408123587, -0.332201111668, "(0.001, 0.0, 0.0, 0.0, 0.001, 0.0, 0.0, 0.0, 0.001)"
1637149071864792739, 7067, 1636512985, 941356897, base_link, -0.00620461824679, -0.0148224846403, -0.999847441476, 0.00684765910506, "(0.0007947170557672002, 0.0, 0.0, 0.0, 0.0007919159507569808, 0.0, 0.0, 0.0, 0.011962150700656204)", 0.0061930309984, -0.00914132158348, -0.0492420315881, "(0.001, 0.0, 0.0, 0.0, 0.001, 0.0, 0.0, 0.0, 0.001)", 0.0219483083962, 0.651395784442, 0.359965873199, "(0.001, 0.0, 0.0, 0.0, 0.001, 0.0, 0.0, 0.0, 0.001)"
1637149071885564413, 7068, 1636512985, 962057113, base_link, -0.00624938445082, -0.0148412815682, -0.999849134189, 0.00651079231775, "(0.0007947170557672002, 0.0, 0.0, 0.0, 0.0007919159507569808, 0.0, 0.0, 0.0, 0.011962150700656204)", 0.00552199459834, -0.0133091408874, -0.0782933593282, "(0.001, 0.0, 0.0, 0.0, 0.001, 0.0, 0.0, 0.0, 0.001)", 0.392426242799, 1.03874943288, -0.325780745173, "(0.001, 0.0, 0.0, 0.0, 0.001, 0.0, 0.0, 0.0, 0.001)"
1637149071905364149, 7069, 1636512985, 981097936, base_link, -0.00627410481521, -0.0148569129671, -0.999851035637, 0.00614933174287, "(0.0007947170557672002, 0.0, 0.0, 0.0, 0.0007919159507569808, 0.0, 0.0, 0.0, 0.011962150700656204)", 0.00328486082826, -0.00591138345046, -0.0554817061152, "(0.001, 0.0, 0.0, 0.0, 0.001, 0.0, 0.0, 0.0, 0.001)", -0.229752802518, 0.652296899611, 0.344640676711, "(0.001, 0.0, 0.0, 0.0, 0.001, 0.0, 0.0, 0.0, 0.001)"
1637149071924605642, 7070, 1636512986, 1084089, base_link, -0.00630259540713, -0.0148650947971, -0.999853020639, 0.0057657061902, "(0.0007947170557672002, 0.0, 0.0, 0.0, 0.0007919159507569808, 0.0, 0.0, 0.0, 0.011962150700656204)", 0.00232401075122, -0.00971526227536, -0.0885778278638, "(0.001, 0.0, 0.0, 0.0, 0.001, 0.0, 0.0, 0.0, 0.001)", 0.420462364342, 1.20304489712, -0.164869018235, "(0.001, 0.0, 0.0, 0.0, 0.001, 0.0, 0.0, 0.0, 0.001)"
1637149071945613272, 7071, 1636512986, 22051095, base_link, -0.00631538235982, -0.0148601358535, -0.999855284299, 0.0053574964512, "(0.0007947170557672002, 0.0, 0.0, 0.0, 0.0007919159507569808, 0.0, 0.0, 0.0, 0.011962150700656204)", 6.15573622767e-05, -0.00320888465504, -0.0629651136334, "(0.001, 0.0, 0.0, 0.0, 0.001, 0.0, 0.0, 0.0, 0.001)", -0.279726963399, 0.670120952896, 0.348778532641, "(0.001, 0.0, 0.0, 0.0, 0.001, 0.0, 0.0, 0.0, 0.001)"
1637149071964133708, 7072, 1636512986, 40704011, base_link, -0.00632817226164, -0.0148587958136, -0.999857387945, 0.00493702281672, "(0.0007947170557672002, 0.0, 0.0, 0.0, 0.0007919159507569808, 0.0, 0.0, 0.0, 0.011962150700656204)", -0.00139912339216, -0.00540955747606, -0.0981741816388, "(0.001, 0.0, 0.0, 0.0, 0.001, 0.0, 0.0, 0.0, 0.001)", 0.340725241686, 1.12362393962, -0.0799175845259, "(0.001, 0.0, 0.0, 0.0, 0.001, 0.0, 0.0, 0.0, 0.001)"
1637149071985849242, 7073, 1636512986, 62319040, base_link, -0.00635379165522, -0.0148108918163, -0.999860041059, 0.00449055774527, "(0.0007947170557672002, 0.0, 0.0, 0.0, 0.0007919159507569808, 0.0, 0.0, 0.0, 0.011962150700656204)", -0.00454028312394, -0.00349757139637, -0.0692219201726, "(0.001, 0.0, 0.0, 0.0, 0.001, 0.0, 0.0, 0.0, 0.001)", -0.272092901023, 0.718914223353, 0.304606786189, "(0.001, 0.0, 0.0, 0.0, 0.001, 0.0, 0.0, 0.0, 0.001)"
1637149072005920447, 7074, 1636512986, 82103967, base_link, -0.00635856476148, -0.0147796579474, -0.999862353538, 0.00405022735492, "(0.0007947170557672002, 0.0, 0.0, 0.0, 0.0007919159507569808, 0.0, 0.0, 0.0, 0.011962150700656204)", -0.00889860833174, -0.00541047956093, -0.105071940388, "(0.001, 0.0, 0.0, 0.0, 0.001, 0.0, 0.0, 0.0, 0.001)", 0.455635382071, 0.994323456295, 0.0968616807642, "(0.001, 0.0, 0.0, 0.0, 0.001, 0.0, 0.0, 0.0, 0.001)"
1637149072024460376, 7075, 1636512986, 101049900, base_link, -0.00635643385726, -0.0147213536519, -0.999865005826, 0.00358435775981, "(0.0007947170557672002, 0.0, 0.0, 0.0, 0.0007919159507569808, 0.0, 0.0, 0.0, 0.011962150700656204)", -0.00801071681922, -0.00122880287413, -0.0729581029244, "(0.001, 0.0, 0.0, 0.0, 0.001, 0.0, 0.0, 0.0, 0.001)", 0.000226261690156, 0.637314465569, 0.022270075782, "(0.001, 0.0, 0.0, 0.0, 0.001, 0.0, 0.0, 0.0, 0.001)"
1637149072044353064, 7076, 1636512986, 120954036, base_link, -0.00634115980606, -0.014683995333, -0.999867168999, 0.00313278337596, "(0.0007947170557672002, 0.0, 0.0, 0.0, 0.0007919159507569808, 0.0, 0.0, 0.0, 0.011962150700656204)", -0.0105932123623, 0.000158744967098, -0.108871198959, "(0.001, 0.0, 0.0, 0.0, 0.001, 0.0, 0.0, 0.0, 0.001)", 0.342439334549, 1.0771742763, 0.1500458526, "(0.001, 0.0, 0.0, 0.0, 0.001, 0.0, 0.0, 0.0, 0.001)"
1637149072065201520, 7077, 1636512986, 141813993, base_link, -0.00635581164172, -0.0146282414897, -0.999869207328, 0.00268075479155, "(0.0007947170557672002, 0.0, 0.0, 0.0, 0.0007919159507569808, 0.0, 0.0, 0.0, 0.011962150700656204)", -0.013696415624, -0.00257949732004, -0.109167641404, "(0.001, 0.0, 0.0, 0.0, 0.001, 0.0, 0.0, 0.0, 0.001)", 0.291003123186, 1.14072788497, -0.321326735091, "(0.001, 0.0, 0.0, 0.0, 0.001, 0.0, 0.0, 0.0, 0.001)"
1637149072084591326, 7078, 1636512986, 161109924, base_link, -0.00637263937488, -0.0145710687924, -0.999871042512, 0.00222974627771, "(0.0007947170557672002, 0.0, 0.0, 0.0, 0.0007919159507569808, 0.0, 0.0, 0.0, 0.011962150700656204)", -0.00883281471522, -0.00317337137007, -0.0716613229719, "(0.001, 0.0, 0.0, 0.0, 0.001, 0.0, 0.0, 0.0, 0.001)", -0.240182313143, 0.802286762401, 0.434932614619, "(0.001, 0.0, 0.0, 0.0, 0.001, 0.0, 0.0, 0.0, 0.001)"
1637149072106422829, 7079, 1636512986, 181873083, base_link, -0.00642274494049, -0.0145006767115, -0.999872642292, 0.00178267146178, "(0.0007947170557672002, 0.0, 0.0, 0.0, 0.0007919159507569808, 0.0, 0.0, 0.0, 0.011962150700656204)", -0.0112729165959, -0.00702576680219, -0.0718287776855, "(0.001, 0.0, 0.0, 0.0, 0.001, 0.0, 0.0, 0.0, 0.001)", 0.1329292141, 0.68871922262, -0.306922518981, "(0.001, 0.0, 0.0, 0.0, 0.001, 0.0, 0.0, 0.0, 0.001)"
1637149072124481663, 7080, 1636512986, 200906038, base_link, -0.00642373379713, -0.0144731350708, -0.999873706252, 0.00135482547049, "(0.0007947170557672002, 0.0, 0.0, 0.0, 0.0007919159507569808, 0.0, 0.0, 0.0, 0.011962150700656204)", -0.0114425749279, -0.00645027766926, -0.104360829287, "(0.001, 0.0, 0.0, 0.0, 0.001, 0.0, 0.0, 0.0, 0.001)", 0.46845842116, 0.901843214366, 0.136405194664, "(0.001, 0.0, 0.0, 0.0, 0.001, 0.0, 0.0, 0.0, 0.001)"
1637149072145927920, 7081, 1636512986, 222521066, base_link, -0.00642548338043, -0.0144292420904, -0.999874813139, 0.000931765296823, "(0.0007947170557672002, 0.0, 0.0, 0.0, 0.0007919159507569808, 0.0, 0.0, 0.0, 0.011962150700656204)", -0.00769137135301, -0.00207736247397, -0.0688188321962, "(0.001, 0.0, 0.0, 0.0, 0.001, 0.0, 0.0, 0.0, 0.001)", 0.458340993122, 0.620484552585, -0.419908391206, "(0.001, 0.0, 0.0, 0.0, 0.001, 0.0, 0.0, 0.0, 0.001)"
1637149072164515780, 7082, 1636512986, 240989923, base_link, -0.00639561942314, -0.0143920141915, -0.999875843116, 0.000514132782999, "(0.0007947170557672002, 0.0, 0.0, 0.0, 0.0007919159507569808, 0.0, 0.0, 0.0, 0.011962150700656204)", -0.00952112804437, 0.00236440419956, -0.100591004371, "(0.001, 0.0, 0.0, 0.0, 0.001, 0.0, 0.0, 0.0, 0.001)", 0.173552969074, 0.833883967439, 0.467860132446, "(0.001, 0.0, 0.0, 0.0, 0.001, 0.0, 0.0, 0.0, 0.001)"
1637149072185293898, 7083, 1636512986, 261921882, base_link, -0.00638266910764, -0.0143468702657, -0.999876700105, 0.000115915755157, "(0.0007947170557672002, 0.0, 0.0, 0.0, 0.0007919159507569808, 0.0, 0.0, 0.0, 0.011962150700656204)", -0.00762868893807, 0.00105237432283, -0.0656778167422, "(0.001, 0.0, 0.0, 0.0, 0.001, 0.0, 0.0, 0.0, 0.001)", 0.501503768652, 0.581392519458, -0.304470287811, "(0.001, 0.0, 0.0, 0.0, 0.001, 0.0, 0.0, 0.0, 0.001)"
1637149072204152363, 7084, 1636512986, 280749082, base_link, -0.00634563669133, -0.0143123926849, -0.999877396044, -0.00028494059749, "(0.0007947170557672002, 0.0, 0.0, 0.0, 0.0007919159507569808, 0.0, 0.0, 0.0, 0.011962150700656204)", -0.00966837869695, 0.00525748759357, -0.0962293097643, "(0.001, 0.0, 0.0, 0.0, 0.001, 0.0, 0.0, 0.0, 0.001)", 0.123680422983, 0.479558291719, 0.237145822486, "(0.001, 0.0, 0.0, 0.0, 0.001, 0.0, 0.0, 0.0, 0.001)"
1637149072228953674, 7085, 1636512986, 305474996, base_link, -0.00629225785189, -0.0143119210634, -0.99987754881, -0.00068102367832, "(0.0007947170557672002, 0.0, 0.0, 0.0, 0.0007919159507569808, 0.0, 0.0, 0.0, 0.011962150700656204)", -0.00314480728718, 0.00545316657619, -0.0641356218365, "(0.001, 0.0, 0.0, 0.0, 0.001, 0.0, 0.0, 0.0, 0.001)", 0.533863312651, 0.579336450523, -0.348750652395, "(0.001, 0.0, 0.0, 0.0, 0.001, 0.0, 0.0, 0.0, 0.001)"
1637149072246310412, 7086, 1636512986, 322897911, base_link, -0.00626769461617, -0.0143012545332, -0.999877466236, -0.00111473613228, "(0.0010167718871036957, 0.0, 0.0, 0.0, 0.0010140000832925683, 0.0, 0.0, 0.0, 0.012250556960431647)", -0.00283244787469, 0.00776060118398, -0.0999405802081, "(0.001, 0.0, 0.0, 0.0, 0.001, 0.0, 0.0, 0.0, 0.001)", -0.382280479502, 0.926089792254, 0.253004226028, "(0.001, 0.0, 0.0, 0.0, 0.001, 0.0, 0.0, 0.0, 0.001)"
1637149072266262526, 7087, 1636512986, 342688083, base_link, -0.00624094523435, -0.0143043355488, -0.999877023739, -0.00154077427201, "(0.0009994811507150203, 0.0, 0.0, 0.0, 0.0009960747520132984, 0.0, 0.0, 0.0, 0.012241886508257416)", -0.000632839037932, 0.00324729125069, -0.0680406824273, "(0.001, 0.0, 0.0, 0.0, 0.001, 0.0, 0.0, 0.0, 0.001)", 0.321512649942, 0.568633008933, 0.0201441328638, "(0.001, 0.0, 0.0, 0.0, 0.001, 0.0, 0.0, 0.0, 0.001)"
1637149072284652369, 7088, 1636512986, 361151933, base_link, -0.00623730079105, -0.0142568727457, -0.999876878391, -0.00201636217662, "(0.0009994811507150203, 0.0, 0.0, 0.0, 0.0009960747520132984, 0.0, 0.0, 0.0, 0.012241886508257416)", -0.00677887827814, 0.00251940119784, -0.108335793692, "(0.001, 0.0, 0.0, 0.0, 0.001, 0.0, 0.0, 0.0, 0.001)", -0.395469338255, 0.949554015056, 0.211142066453, "(0.001, 0.0, 0.0, 0.0, 0.001, 0.0, 0.0, 0.0, 0.001)"
1637149072306495387, 7089, 1636512986, 382149934, base_link, -0.00622485430774, -0.0142355801231, -0.99987615567, -0.00250454998195, "(0.0009994811507150203, 0.0, 0.0, 0.0, 0.0009960747520132984, 0.0, 0.0, 0.0, 0.012241886508257416)", -0.00690645877127, 0.000725093865501, -0.113943965195, "(0.001, 0.0, 0.0, 0.0, 0.001, 0.0, 0.0, 0.0, 0.001)", -0.328834714991, 0.969518228969, 0.0928826587761, "(0.001, 0.0, 0.0, 0.0, 0.001, 0.0, 0.0, 0.0, 0.001)"
1637149072324279362, 7090, 1636512986, 400729894, base_link, -0.0062386175183, -0.0142028186126, -0.999875102066, -0.00302322058123, "(0.0009994811507150203, 0.0, 0.0, 0.0, 0.0009960747520132984, 0.0, 0.0, 0.0, 0.012241886508257416)", -0.00554954189435, -0.00225617837499, -0.0815132727715, "(0.001, 0.0, 0.0, 0.0, 0.001, 0.0, 0.0, 0.0, 0.001)", -0.0362121196996, 0.751119086851, -0.388957437523, "(0.001, 0.0, 0.0, 0.0, 0.001, 0.0, 0.0, 0.0, 0.001)"
1637149072344816153, 7091, 1636512986, 421412944, base_link, -0.00625173864187, -0.0141797835869, -0.999873605834, -0.00355272545828, "(0.0009994811507150203, 0.0, 0.0, 0.0, 0.0009960747520132984, 0.0, 0.0, 0.0, 0.012241886508257416)", -0.00487374416, -0.00300848266124, -0.0832774429151, "(0.001, 0.0, 0.0, 0.0, 0.001, 0.0, 0.0, 0.0, 0.001)", -0.411959766222, 0.69145770535, 0.0968867579983, "(0.001, 0.0, 0.0, 0.0, 0.001, 0.0, 0.0, 0.0, 0.001)"
1637149072364149956, 7092, 1636512986, 440686941, base_link, -0.00629310118027, -0.0141370280823, -0.999871758145, -0.004124145685, "(0.0009994811507150203, 0.0, 0.0, 0.0, 0.0009960747520132984, 0.0, 0.0, 0.0, 0.012241886508257416)", -0.00985298772886, -0.00935243100846, -0.132236550963, "(0.001, 0.0, 0.0, 0.0, 0.001, 0.0, 0.0, 0.0, 0.001)", -0.0681794674491, 1.1232516552, -0.505412236293, "(0.001, 0.0, 0.0, 0.0, 0.001, 0.0, 0.0, 0.0, 0.001)"
1637149072384622686, 7093, 1636512986, 461110115, base_link, -0.00632766636966, -0.014096383739, -0.999869601225, -0.00469394824734, "(0.0009994811507150203, 0.0, 0.0, 0.0, 0.0009960747520132984, 0.0, 0.0, 0.0, 0.012241886508257416)", -0.00594138672443, -0.00611102742364, -0.0896490994004, "(0.001, 0.0, 0.0, 0.0, 0.001, 0.0, 0.0, 0.0, 0.001)", -0.542477272718, 0.739013758811, 0.167864442148, "(0.001, 0.0, 0.0, 0.0, 0.001, 0.0, 0.0, 0.0, 0.001)"
1637149072404928866, 7094, 1636512986, 481343984, base_link, -0.00640503595214, -0.0140547769905, -0.999866818817, -0.0052709948925, "(0.0009994811507150203, 0.0, 0.0, 0.0, 0.0009960747520132984, 0.0, 0.0, 0.0, 0.012241886508257416)", -0.0114013572862, -0.0161282700914, -0.137632937897, "(0.001, 0.0, 0.0, 0.0, 0.001, 0.0, 0.0, 0.0, 0.001)", 0.302345614077, 1.09118934588, -0.646835542361, "(0.001, 0.0, 0.0, 0.0, 0.001, 0.0, 0.0, 0.0, 0.001)"
1637149072425531557, 7095, 1636512986, 502084016, base_link, -0.00647188698037, -0.0140106379246, -0.999863870588, -0.00583583718838, "(0.0009994811507150203, 0.0, 0.0, 0.0, 0.0009960747520132984, 0.0, 0.0, 0.0, 0.012241886508257416)", -0.00698603636886, -0.0116743650093, -0.0901397835548, "(0.001, 0.0, 0.0, 0.0, 0.001, 0.0, 0.0, 0.0, 0.001)", -0.278395091155, 0.697017817393, 0.145176791245, "(0.001, 0.0, 0.0, 0.0, 0.001, 0.0, 0.0, 0.0, 0.001)"
1637149072444444623, 7096, 1636512986, 520965099, base_link, -0.00656002075552, -0.0139962855341, -0.999860323938, -0.00635631451755, "(0.0009994811507150203, 0.0, 0.0, 0.0, 0.0009960747520132984, 0.0, 0.0, 0.0, 0.012241886508257416)", -0.00778610623703, -0.0210340333058, -0.130544037234, "(0.001, 0.0, 0.0, 0.0, 0.001, 0.0, 0.0, 0.0, 0.001)", 0.602798555717, 0.922762513536, -0.532152670559, "(0.001, 0.0, 0.0, 0.0, 0.001, 0.0, 0.0, 0.0, 0.001)"
1637149072465043602, 7097, 1636512986, 541610956, base_link, -0.00664257729425, -0.0139570952919, -0.999856810784, -0.00688720451956, "(0.0009994811507150203, 0.0, 0.0, 0.0, 0.0009960747520132984, 0.0, 0.0, 0.0, 0.012241886508257416)", -0.00558749606876, -0.0138898288047, -0.0846007958645, "(0.001, 0.0, 0.0, 0.0, 0.001, 0.0, 0.0, 0.0, 0.001)", -0.06110958947, 0.734450373291, 0.177571412707, "(0.001, 0.0, 0.0, 0.0, 0.001, 0.0, 0.0, 0.0, 0.001)"
1637149072484436070, 7098, 1636512986, 560385942, base_link, -0.00664257729425, -0.0139570952919, -0.999856810784, -0.00688720451956, "(0.0009994811507150203, 0.0, 0.0, 0.0, 0.0009960747520132984, 0.0, 0.0, 0.0, 0.012241886508257416)", -0.010848096207, -0.019205339942, -0.120301428115, "(0.001, 0.0, 0.0, 0.0, 0.001, 0.0, 0.0, 0.0, 0.001)", 0.874513298132, 1.20304553975, -0.229711303303, "(0.001, 0.0, 0.0, 0.0, 0.001, 0.0, 0.0, 0.0, 0.001)"
1637149072505111919, 7099, 1636512986, 581283092, base_link, -0.00677320504376, -0.0138617391112, -0.999850131369, -0.00785434167852, "(0.0009994811507150203, 0.0, 0.0, 0.0, 0.0009960747520132984, 0.0, 0.0, 0.0, 0.012241886508257416)", -0.00720319119377, -0.0121692015885, -0.0783968930921, "(0.001, 0.0, 0.0, 0.0, 0.001, 0.0, 0.0, 0.0, 0.001)", 0.396108338931, 0.676660053601, 0.0744638510043, "(0.001, 0.0, 0.0, 0.0, 0.001, 0.0, 0.0, 0.0, 0.001)"
1637149072524527961, 7100, 1636512986, 600925922, base_link, -0.00679297820529, -0.0138178269724, -0.999846985921, -0.00830227982508, "(0.0009994811507150203, 0.0, 0.0, 0.0, 0.0009960747520132984, 0.0, 0.0, 0.0, 0.012241886508257416)", -0.0114318496151, -0.0117950232616, -0.111633707625, "(0.001, 0.0, 0.0, 0.0, 0.001, 0.0, 0.0, 0.0, 0.001)", 0.596352624352, 1.23842462934, 0.179954775368, "(0.001, 0.0, 0.0, 0.0, 0.001, 0.0, 0.0, 0.0, 0.001)"
1637149072544912045, 7101, 1636512986, 621455907, base_link, -0.00682883902057, -0.013753158269, -0.999843679208, -0.00876554299194, "(0.0009994811507150203, 0.0, 0.0, 0.0, 0.0009960747520132984, 0.0, 0.0, 0.0, 0.012241886508257416)", -0.00924335607508, -0.00700137190473, -0.074260161796, "(0.001, 0.0, 0.0, 0.0, 0.001, 0.0, 0.0, 0.0, 0.001)", 0.455392246092, 0.595367817688, 0.0522200365834, "(0.001, 0.0, 0.0, 0.0, 0.001, 0.0, 0.0, 0.0, 0.001)"
1637149072564279835, 7102, 1636512986, 640789031, base_link, -0.00686461059534, -0.0137068119061, -0.999839963474, -0.00922214020681, "(0.0009994811507150203, 0.0, 0.0, 0.0, 0.0009960747520132984, 0.0, 0.0, 0.0, 0.012241886508257416)", -0.0126082451679, -0.0100274649353, -0.109031398912, "(0.001, 0.0, 0.0, 0.0, 0.001, 0.0, 0.0, 0.0, 0.001)", -0.0342906675982, 1.02274761944, 0.501840237993, "(0.001, 0.0, 0.0, 0.0, 0.001, 0.0, 0.0, 0.0, 0.001)"
1637149072585702291, 7103, 1636512986, 662214040, base_link, -0.00691232348365, -0.0136383696403, -0.999836042746, -0.00970063311729, "(0.0009994811507150203, 0.0, 0.0, 0.0, 0.0009960747520132984, 0.0, 0.0, 0.0, 0.012241886508257416)", -0.0109303251532, -0.00830563353023, -0.0756418196392, "(0.001, 0.0, 0.0, 0.0, 0.001, 0.0, 0.0, 0.0, 0.001)", 0.398868047596, 0.676563369412, -0.0300731707707, "(0.001, 0.0, 0.0, 0.0, 0.001, 0.0, 0.0, 0.0, 0.001)"
1637149072604280008, 7104, 1636512986, 680478096, base_link, -0.00697621321704, -0.0135718108728, -0.999831411191, -0.0102121297519, "(0.0009994811507150203, 0.0, 0.0, 0.0, 0.0009960747520132984, 0.0, 0.0, 0.0, 0.012241886508257416)", -0.0158611883188, -0.0141298624786, -0.117233501347, "(0.001, 0.0, 0.0, 0.0, 0.001, 0.0, 0.0, 0.0, 0.001)", -0.555689889671, 0.923612430185, 0.642957926686, "(0.001, 0.0, 0.0, 0.0, 0.001, 0.0, 0.0, 0.0, 0.001)"
1637149072625642230, 7105, 1636512986, 701390981, base_link, -0.00702299685243, -0.0134925990793, -0.999826688518, -0.0107340678846, "(0.0009994811507150203, 0.0, 0.0, 0.0, 0.0009960747520132984, 0.0, 0.0, 0.0, 0.012241886508257416)", -0.0124224274454, -0.0104700188156, -0.0824539296028, "(0.001, 0.0, 0.0, 0.0, 0.001, 0.0, 0.0, 0.0, 0.001)", 0.198083758248, 0.66064476515, 0.0405599846643, "(0.001, 0.0, 0.0, 0.0, 0.001, 0.0, 0.0, 0.0, 0.001)"
1637149072644639369, 7106, 1636512986, 721232891, base_link, -0.00710253543114, -0.0134168837681, -0.999820633967, -0.0113243593295, "(0.0009994811507150203, 0.0, 0.0, 0.0, 0.0009960747520132984, 0.0, 0.0, 0.0, 0.012241886508257416)", -0.0187931350287, -0.0179271426374, -0.132489273788, "(0.001, 0.0, 0.0, 0.0, 0.001, 0.0, 0.0, 0.0, 0.001)", -0.594185131913, 0.93951434385, 0.398500414447, "(0.001, 0.0, 0.0, 0.0, 0.001, 0.0, 0.0, 0.0, 0.001)"
1637149072664713667, 7107, 1636512986, 741195917, base_link, -0.00710253543114, -0.0134168837681, -0.999820633967, -0.0113243593295, "(0.0009994811507150203, 0.0, 0.0, 0.0, 0.0009960747520132984, 0.0, 0.0, 0.0, 0.012241886508257416)", -0.0124723000692, -0.0127583049991, -0.0909187238153, "(0.001, 0.0, 0.0, 0.0, 0.001, 0.0, 0.0, 0.0, 0.001)", 0.109108826723, 0.709939376344, 0.0944724174013, "(0.001, 0.0, 0.0, 0.0, 0.001, 0.0, 0.0, 0.0, 0.001)"
1637149072684581612, 7108, 1636512986, 761102914, base_link, -0.00725253913206, -0.0132444678637, -0.999807407764, -0.0125352354136, "(0.0009994811507150203, 0.0, 0.0, 0.0, 0.0009960747520132984, 0.0, 0.0, 0.0, 0.012241886508257416)", -0.0218665917768, -0.0209589036625, -0.145424041449, "(0.001, 0.0, 0.0, 0.0, 0.001, 0.0, 0.0, 0.0, 0.001)", -0.0240568965167, 0.951698617281, 0.109584191285, "(0.001, 0.0, 0.0, 0.0, 0.001, 0.0, 0.0, 0.0, 0.001)"
1637149072705531674, 7109, 1636512986, 781923055, base_link, -0.00728218374291, -0.0131433585728, -0.999800610142, -0.0131514974805, "(0.0009994811507150203, 0.0, 0.0, 0.0, 0.0009960747520132984, 0.0, 0.0, 0.0, 0.012241886508257416)", -0.0160621363805, -0.0090399214573, -0.0984119633455, "(0.001, 0.0, 0.0, 0.0, 0.001, 0.0, 0.0, 0.0, 0.001)", 0.295587491811, 0.666762690166, 0.215535379235, "(0.001, 0.0, 0.0, 0.0, 0.001, 0.0, 0.0, 0.0, 0.001)"
1637149072726403801, 7110, 1636512986, 802874088, base_link, -0.00728212271866, -0.0130187245162, -0.999793588544, -0.0137936147085, "(0.0009994811507150203, 0.0, 0.0, 0.0, 0.0009960747520132984, 0.0, 0.0, 0.0, 0.012241886508257416)", -0.0286227830065, -0.00793769357786, -0.151452549649, "(0.001, 0.0, 0.0, 0.0, 0.001, 0.0, 0.0, 0.0, 0.001)", 0.921592083169, 1.10593608838, -0.253800160491, "(0.001, 0.0, 0.0, 0.0, 0.001, 0.0, 0.0, 0.0, 0.001)"
1637149072744836830, 7111, 1636512986, 821224927, base_link, -0.00723522402379, -0.0129000318693, -0.999786447211, -0.0144326256558, "(0.0009994811507150203, 0.0, 0.0, 0.0, 0.0009960747520132984, 0.0, 0.0, 0.0, 0.012241886508257416)", -0.0188770160512, 0.0025746491658, -0.101276221996, "(0.001, 0.0, 0.0, 0.0, 0.001, 0.0, 0.0, 0.0, 0.001)", 0.324194256225, 0.670876428529, 0.176782749915, "(0.001, 0.0, 0.0, 0.0, 0.001, 0.0, 0.0, 0.0, 0.001)"
1637149072764719472, 7112, 1636512986, 841290950, base_link, -0.00716137277734, -0.0127773631726, -0.999779478822, -0.0150481711799, "(0.0009994811507150203, 0.0, 0.0, 0.0, 0.0009960747520132984, 0.0, 0.0, 0.0, 0.012241886508257416)", -0.0308751569618, 0.00981783513688, -0.15069059863, "(0.001, 0.0, 0.0, 0.0, 0.001, 0.0, 0.0, 0.0, 0.001)", 1.38392621304, 0.949810058386, -0.346529145254, "(0.001, 0.0, 0.0, 0.0, 0.001, 0.0, 0.0, 0.0, 0.001)"
1637149072785256563, 7113, 1636512986, 861768007, base_link, -0.007090129671, -0.0126426454966, -0.999772186942, -0.0156674118028, "(0.0009994811507150203, 0.0, 0.0, 0.0, 0.0009960747520132984, 0.0, 0.0, 0.0, 0.012241886508257416)", -0.0207726778352, 0.00950233574843, -0.0988177525177, "(0.001, 0.0, 0.0, 0.0, 0.001, 0.0, 0.0, 0.0, 0.001)", 0.240836538028, 0.497456541995, 0.200782793689, "(0.001, 0.0, 0.0, 0.0, 0.001, 0.0, 0.0, 0.0, 0.001)"
1637149072804672098, 7114, 1636512986, 880770921, base_link, -0.00700249629057, -0.0125301619376, -0.999764972118, -0.0162468647016, "(0.0009994811507150203, 0.0, 0.0, 0.0, 0.0009960747520132984, 0.0, 0.0, 0.0, 0.012241886508257416)", -0.0309215460162, 0.0167670848821, -0.143979008171, "(0.001, 0.0, 0.0, 0.0, 0.001, 0.0, 0.0, 0.0, 0.001)", 1.05267454222, 0.757873010782, -0.186095808059, "(0.001, 0.0, 0.0, 0.0, 0.001, 0.0, 0.0, 0.0, 0.001)"
1637149072824694572, 7115, 1636512986, 901173114, base_link, -0.00693975968133, -0.0124008359846, -0.999757253203, -0.0168372702801, "(0.0009994811507150203, 0.0, 0.0, 0.0, 0.0009960747520132984, 0.0, 0.0, 0.0, 0.012241886508257416)", -0.0208211838251, 0.00966976272088, -0.0943677188194, "(0.001, 0.0, 0.0, 0.0, 0.001, 0.0, 0.0, 0.0, 0.001)", 0.270782733064, 0.597023148571, 0.0693542913945, "(0.001, 0.0, 0.0, 0.0, 0.001, 0.0, 0.0, 0.0, 0.001)"
1637149072844057401, 7116, 1636512986, 920619010, base_link, -0.00684656479979, -0.0122955230259, -0.999749619889, -0.0173966144941, "(0.0009994811507150203, 0.0, 0.0, 0.0, 0.0009960747520132984, 0.0, 0.0, 0.0, 0.012241886508257416)", -0.0284240957924, 0.0173216232045, -0.137275775706, "(0.001, 0.0, 0.0, 0.0, 0.001, 0.0, 0.0, 0.0, 0.001)", 0.54112301613, 0.537683289317, -0.0173811312428, "(0.001, 0.0, 0.0, 0.0, 0.001, 0.0, 0.0, 0.0, 0.001)"
1637149072864914110, 7117, 1636512986, 941406011, base_link, -0.00677956401731, -0.0121934145545, -0.999741045054, -0.0179777915274, "(0.0009994811507150203, 0.0, 0.0, 0.0, 0.0009960747520132984, 0.0, 0.0, 0.0, 0.012241886508257416)", -0.0180665188541, 0.0103453158789, -0.09242488001, "(0.001, 0.0, 0.0, 0.0, 0.001, 0.0, 0.0, 0.0, 0.001)", 0.368862776552, 0.499322574645, -0.122053229392, "(0.001, 0.0, 0.0, 0.0, 0.001, 0.0, 0.0, 0.0, 0.001)"
1637149072885318579, 7118, 1636512986, 961843967, base_link, -0.0066824053954, -0.0121111203254, -0.999732153997, -0.0185549585676, "(0.0009994811507150203, 0.0, 0.0, 0.0, 0.0009960747520132984, 0.0, 0.0, 0.0, 0.012241886508257416)", -0.02341249204, 0.0184800910115, -0.137912312068, "(0.001, 0.0, 0.0, 0.0, 0.001, 0.0, 0.0, 0.0, 0.001)", -0.0189359097592, 0.500224305507, 0.0375205789527, "(0.001, 0.0, 0.0, 0.0, 0.001, 0.0, 0.0, 0.0, 0.001)"
1637149072905511013, 7119, 1636512986, 981406927, base_link, -0.00658704571202, -0.0120509148111, -0.999722216485, -0.0191540112716, "(0.0009994811507150203, 0.0, 0.0, 0.0, 0.0009960747520132984, 0.0, 0.0, 0.0, 0.012241886508257416)", -0.0129347013667, 0.0127539595443, -0.0951745461123, "(0.001, 0.0, 0.0, 0.0, 0.001, 0.0, 0.0, 0.0, 0.001)", 0.526035444738, 0.448797927502, -0.351342511013, "(0.001, 0.0, 0.0, 0.0, 0.001, 0.0, 0.0, 0.0, 0.001)"
1637149072927003707, 7120, 1636512987, 3340005, base_link, -0.00646081004573, -0.0120006575492, -0.999711385717, -0.0197835138247, "(0.0009994811507150203, 0.0, 0.0, 0.0, 0.0009960747520132984, 0.0, 0.0, 0.0, 0.012241886508257416)", -0.0150911149841, 0.0248794109517, -0.14611217122, "(0.001, 0.0, 0.0, 0.0, 0.001, 0.0, 0.0, 0.0, 0.001)", -0.236326931624, 0.687612877408, -0.0396311567931, "(0.001, 0.0, 0.0, 0.0, 0.001, 0.0, 0.0, 0.0, 0.001)"
1637149072945899262, 7121, 1636512987, 22486925, base_link, -0.00629943385763, -0.0119736667146, -0.999700223658, -0.0204061573162, "(0.0009994811507150203, 0.0, 0.0, 0.0, 0.0009960747520132984, 0.0, 0.0, 0.0, 0.012241886508257416)", -0.00795034924077, 0.0209240810433, -0.100371353925, "(0.001, 0.0, 0.0, 0.0, 0.001, 0.0, 0.0, 0.0, 0.001)", 0.852036157846, 0.236732164881, -0.59168883961, "(0.001, 0.0, 0.0, 0.0, 0.001, 0.0, 0.0, 0.0, 0.001)"
1637149072964473556, 7122, 1636512987, 40721893, base_link, -0.00613156394115, -0.0119881211471, -0.999687564566, -0.0210585404906, "(0.0009994811507150203, 0.0, 0.0, 0.0, 0.0009960747520132984, 0.0, 0.0, 0.0, 0.012241886508257416)", -0.00287174155715, 0.037074816593, -0.15320242851, "(0.001, 0.0, 0.0, 0.0, 0.001, 0.0, 0.0, 0.0, 0.001)", 0.0444580449971, 0.567994062205, -0.410317395744, "(0.001, 0.0, 0.0, 0.0, 0.001, 0.0, 0.0, 0.0, 0.001)"
1637149072985108854, 7123, 1636512987, 61604022, base_link, -0.00595048110138, -0.012021981421, -0.99967448833, -0.0217020994493, "(0.0009994811507150203, 0.0, 0.0, 0.0, 0.0009960747520132984, 0.0, 0.0, 0.0, 0.012241886508257416)", 0.00137724884281, 0.0258993115493, -0.103497095111, "(0.001, 0.0, 0.0, 0.0, 0.001, 0.0, 0.0, 0.0, 0.001)", 0.519945351483, 0.247278821264, -0.570252187865, "(0.001, 0.0, 0.0, 0.0, 0.001, 0.0, 0.0, 0.0, 0.001)"
1637149073005947678, 7124, 1636512987, 81904888, base_link, -0.00578580443044, -0.0120807388417, -0.999660185436, -0.0223627786686, "(0.0009994811507150203, 0.0, 0.0, 0.0, 0.0009960747520132984, 0.0, 0.0, 0.0, 0.012241886508257416)", 0.00856081675317, 0.0390676637264, -0.157114319967, "(0.001, 0.0, 0.0, 0.0, 0.001, 0.0, 0.0, 0.0, 0.001)", 0.411768554163, 0.604605250737, -0.0630892580073, "(0.001, 0.0, 0.0, 0.0, 0.001, 0.0, 0.0, 0.0, 0.001)"
1637149073024509424, 7125, 1636512987, 101021051, base_link, -0.0056116173339, -0.0121265585556, -0.999645648716, -0.0230224527651, "(0.0009994811507150203, 0.0, 0.0, 0.0, 0.0009960747520132984, 0.0, 0.0, 0.0, 0.012241886508257416)", 0.00675445318518, 0.0264506398927, -0.105331946373, "(0.001, 0.0, 0.0, 0.0, 0.001, 0.0, 0.0, 0.0, 0.001)", 0.153023896734, 0.309761038177, -0.0613435757015, "(0.001, 0.0, 0.0, 0.0, 0.001, 0.0, 0.0, 0.0, 0.001)"
1637149073044241682, 7126, 1636512987, 120800971, base_link, -0.00548992330796, -0.0122127181864, -0.999629472606, -0.0236986867423, "(0.0009994811507150203, 0.0, 0.0, 0.0, 0.0009960747520132984, 0.0, 0.0, 0.0, 0.012241886508257416)", 0.0139727601886, 0.0335472322232, -0.161328665337, "(0.001, 0.0, 0.0, 0.0, 0.001, 0.0, 0.0, 0.0, 0.001)", -0.00712005346476, 0.504787140586, -0.188137189567, "(0.001, 0.0, 0.0, 0.0, 0.001, 0.0, 0.0, 0.0, 0.001)"
1637149073065616990, 7127, 1636512987, 142153978, base_link, -0.00538737244528, -0.0122530209029, -0.999613244299, -0.0243762490773, "(0.0009994811507150203, 0.0, 0.0, 0.0, 0.0009960747520132984, 0.0, 0.0, 0.0, 0.012241886508257416)", 0.00828289221391, 0.0173664578889, -0.107876391784, "(0.001, 0.0, 0.0, 0.0, 0.001, 0.0, 0.0, 0.0, 0.001)", -0.509256101454, 0.420124774403, 0.395043843554, "(0.001, 0.0, 0.0, 0.0, 0.001, 0.0, 0.0, 0.0, 0.001)"
1637149073084038218, 7128, 1636512987, 160579919, base_link, -0.00536055502715, -0.0122957189514, -0.999595618447, -0.0250734785555, "(0.0009994811507150203, 0.0, 0.0, 0.0, 0.0009960747520132984, 0.0, 0.0, 0.0, 0.012241886508257416)", 0.00932325295592, 0.0136740384961, -0.165211700637, "(0.001, 0.0, 0.0, 0.0, 0.001, 0.0, 0.0, 0.0, 0.001)", -0.0910992806517, 0.757848302686, 0.382075337537, "(0.001, 0.0, 0.0, 0.0, 0.001, 0.0, 0.0, 0.0, 0.001)"
1637149073105108393, 7129, 1636512987, 181591033, base_link, -0.00533778102628, -0.012298663961, -0.999577166292, -0.0258019298952, "(0.0009994811507150203, 0.0, 0.0, 0.0, 0.0009960747520132984, 0.0, 0.0, 0.0, 0.012241886508257416)", 0.00305874113777, 0.00461032436147, -0.113799140901, "(0.001, 0.0, 0.0, 0.0, 0.001, 0.0, 0.0, 0.0, 0.001)", -0.715495204339, 0.343160176167, 0.460552556375, "(0.001, 0.0, 0.0, 0.0, 0.001, 0.0, 0.0, 0.0, 0.001)"
1637149073124464080, 7130, 1636512987, 200634956, base_link, -0.00530718201934, -0.0123189802067, -0.999557795609, -0.026538458551, "(0.0009994811507150203, 0.0, 0.0, 0.0, 0.0009960747520132984, 0.0, 0.0, 0.0, 0.012241886508257416)", 0.00293935605415, 0.00502200526723, -0.175028066834, "(0.001, 0.0, 0.0, 0.0, 0.001, 0.0, 0.0, 0.0, 0.001)", -0.137364471165, 0.5361275499, 0.139514007505, "(0.001, 0.0, 0.0, 0.0, 0.001, 0.0, 0.0, 0.0, 0.001)"
1637149073144725151, 7131, 1636512987, 220712900, base_link, -0.00530718201934, -0.0123189802067, -0.999557795609, -0.026538458551, "(0.0009994811507150203, 0.0, 0.0, 0.0, 0.0009960747520132984, 0.0, 0.0, 0.0, 0.012241886508257416)", 0.00236354977083, 0.000909970386742, -0.119060488575, "(0.001, 0.0, 0.0, 0.0, 0.001, 0.0, 0.0, 0.0, 0.001)", -0.170815487061, 0.573043475873, 0.0629624322005, "(0.001, 0.0, 0.0, 0.0, 0.001, 0.0, 0.0, 0.0, 0.001)"
1637149073164426742, 7132, 1636512987, 241003990, base_link, -0.00529692673295, -0.0123474664828, -0.999516833737, -0.0280282306867, "(0.0009994811507150203, 0.0, 0.0, 0.0, 0.0009960747520132984, 0.0, 0.0, 0.0, 0.012241886508257416)", 0.002784988255, -0.000227961347303, -0.177482144076, "(0.001, 0.0, 0.0, 0.0, 0.001, 0.0, 0.0, 0.0, 0.001)", -0.357672676078, 0.630261462502, 0.306734026784, "(0.001, 0.0, 0.0, 0.0, 0.001, 0.0, 0.0, 0.0, 0.001)"
1637149073186615341, 7133, 1636512987, 263070106, base_link, -0.00530813930681, -0.0123408094468, -0.999495621971, -0.0287755059164, "(0.0009994811507150203, 0.0, 0.0, 0.0, 0.0009960747520132984, 0.0, 0.0, 0.0, 0.012241886508257416)", -0.000563620887014, -0.00209983137993, -0.119576032661, "(0.001, 0.0, 0.0, 0.0, 0.001, 0.0, 0.0, 0.0, 0.001)", 0.164514617984, 0.535374334935, -0.226726756319, "(0.001, 0.0, 0.0, 0.0, 0.001, 0.0, 0.0, 0.0, 0.001)"
1637149073205535515, 7134, 1636512987, 280841112, base_link, -0.00533118697657, -0.0123722296116, -0.999473719371, -0.0295091624235, "(0.0009994811507150203, 0.0, 0.0, 0.0, 0.0009960747520132984, 0.0, 0.0, 0.0, 0.012241886508257416)", 0.00346697768433, -0.00542983699027, -0.176753703329, "(0.001, 0.0, 0.0, 0.0, 0.001, 0.0, 0.0, 0.0, 0.001)", -0.290215659245, 0.439216589794, -0.196125945711, "(0.001, 0.0, 0.0, 0.0, 0.001, 0.0, 0.0, 0.0, 0.001)"
1637149073228347633, 7135, 1636512987, 304948091, base_link, -0.005357067463, -0.0124092016102, -0.999451329517, -0.0302382782175, "(0.0009994811507150203, 0.0, 0.0, 0.0, 0.0009960747520132984, 0.0, 0.0, 0.0, 0.012241886508257416)", 0.0037048956656, -0.0051444633899, -0.117860748601, "(0.001, 0.0, 0.0, 0.0, 0.001, 0.0, 0.0, 0.0, 0.001)", 0.489922421896, 0.68681525415, -0.347709797855, "(0.001, 0.0, 0.0, 0.0, 0.001, 0.0, 0.0, 0.0, 0.001)"
1637149073247696623, 7136, 1636512987, 324276924, base_link, -0.00544631273309, -0.0124151829479, -0.999428259438, -0.030973458751, "(0.0011955494113409376, 0.0, 0.0, 0.0, 0.0011921278803322388, 0.0, 0.0, 0.0, 0.012534978492209137)", 0.0044492818505, -0.0155207022736, -0.175267835786, "(0.001, 0.0, 0.0, 0.0, 0.001, 0.0, 0.0, 0.0, 0.001)", -0.490058011791, 0.729545671936, -0.158546258085, "(0.001, 0.0, 0.0, 0.0, 0.001, 0.0, 0.0, 0.0, 0.001)"
1637149073264756307, 7137, 1636512987, 341286897, base_link, -0.00556102668207, -0.0124673041444, -0.99940458282, -0.0316878706796, "(0.0011432781387004654, 0.0, 0.0, 0.0, 0.0011390057619276167, 0.0, 0.0, 0.0, 0.012510739379370472)", 0.00565150894555, -0.0171463157286, -0.115789323385, "(0.001, 0.0, 0.0, 0.0, 0.001, 0.0, 0.0, 0.0, 0.001)", 0.193619483219, 0.384053703433, -0.508262123229, "(0.001, 0.0, 0.0, 0.0, 0.001, 0.0, 0.0, 0.0, 0.001)"
1637149073285933276, 7138, 1636512987, 362364053, base_link, -0.00573270181547, -0.0124878265462, -0.999379484127, -0.0324320370062, "(0.0011432781387004654, 0.0, 0.0, 0.0, 0.0011390057619276167, 0.0, 0.0, 0.0, 0.012510739379370472)", 0.00720590845178, -0.0354276065646, -0.175394937667, "(0.001, 0.0, 0.0, 0.0, 0.001, 0.0, 0.0, 0.0, 0.001)", -0.150608661202, 0.866569556, -0.527792203819, "(0.001, 0.0, 0.0, 0.0, 0.001, 0.0, 0.0, 0.0, 0.001)"
1637149073306698932, 7139, 1636512987, 382293939, base_link, -0.00589549684809, -0.0125580703621, -0.999353684029, -0.0331625120296, "(0.0011432781387004654, 0.0, 0.0, 0.0, 0.0011390057619276167, 0.0, 0.0, 0.0, 0.012510739379370472)", 0.00827888991681, -0.026905803625, -0.116830748316, "(0.001, 0.0, 0.0, 0.0, 0.001, 0.0, 0.0, 0.0, 0.001)", 0.0537325823459, 0.364688325069, -0.377286077815, "(0.001, 0.0, 0.0, 0.0, 0.001, 0.0, 0.0, 0.0, 0.001)"
1637149073324955246, 7140, 1636512987, 401434898, base_link, -0.00609751504182, -0.0126056132066, -0.999326172557, -0.0339281545086, "(0.0011432781387004654, 0.0, 0.0, 0.0, 0.0011390057619276167, 0.0, 0.0, 0.0, 0.012510739379370472)", 0.0129737842465, -0.045904836946, -0.179840752498, "(0.001, 0.0, 0.0, 0.0, 0.001, 0.0, 0.0, 0.0, 0.001)", 0.433156671973, 0.844841552805, -0.449538567109, "(0.001, 0.0, 0.0, 0.0, 0.001, 0.0, 0.0, 0.0, 0.001)"
1637149073345543935, 7141, 1636512987, 422058105, base_link, -0.00626116876177, -0.0126563025165, -0.999298338137, -0.034690736063, "(0.0011432781387004654, 0.0, 0.0, 0.0, 0.0011390057619276167, 0.0, 0.0, 0.0, 0.012510739379370472)", 0.00857779746968, -0.0290672038393, -0.120489715313, "(0.001, 0.0, 0.0, 0.0, 0.001, 0.0, 0.0, 0.0, 0.001)", -0.1015250495, 0.325826927337, -0.226082495735, "(0.001, 0.0, 0.0, 0.0, 0.001, 0.0, 0.0, 0.0, 0.001)"
1637149073365719423, 7142, 1636512987, 442178964, base_link, -0.00637944830969, -0.0127347652315, -0.999268268528, -0.0354972661943, "(0.0011432781387004654, 0.0, 0.0, 0.0, 0.0011390057619276167, 0.0, 0.0, 0.0, 0.012510739379370472)", 0.0154445823614, -0.0382655021469, -0.18835189788, "(0.001, 0.0, 0.0, 0.0, 0.001, 0.0, 0.0, 0.0, 0.001)", 0.989203136754, 0.67893253641, -0.594042286942, "(0.001, 0.0, 0.0, 0.0, 0.001, 0.0, 0.0, 0.0, 0.001)"
1637149073385049118, 7143, 1636512987, 461510896, base_link, -0.00648331068572, -0.0127940772887, -0.999236704923, -0.0363357372659, "(0.0011432781387004654, 0.0, 0.0, 0.0, 0.0011390057619276167, 0.0, 0.0, 0.0, 0.012510739379370472)", 0.0105558511874, -0.019409243468, -0.130472995376, "(0.001, 0.0, 0.0, 0.0, 0.001, 0.0, 0.0, 0.0, 0.001)", -0.00950321540378, 0.520476618589, 0.035553347323, "(0.001, 0.0, 0.0, 0.0, 0.001, 0.0, 0.0, 0.0, 0.001)"
1637149073404591423, 7144, 1636512987, 481019973, base_link, -0.006530438875, -0.0128603544006, -0.999203849569, -0.0371971996203, "(0.0011432781387004654, 0.0, 0.0, 0.0, 0.0011390057619276167, 0.0, 0.0, 0.0, 0.012510739379370472)", 0.0137120785395, -0.0208129206902, -0.202649849199, "(0.001, 0.0, 0.0, 0.0, 0.001, 0.0, 0.0, 0.0, 0.001)", 0.759309999942, 0.849305533069, -0.430044691429, "(0.001, 0.0, 0.0, 0.0, 0.001, 0.0, 0.0, 0.0, 0.001)"
1637149073424849998, 7145, 1636512987, 501368045, base_link, -0.00660978099893, -0.012887883122, -0.999168980393, -0.0380993685491, "(0.0011432781387004654, 0.0, 0.0, 0.0, 0.0011390057619276167, 0.0, 0.0, 0.0, 0.012510739379370472)", 0.00761985123184, -0.0128530190804, -0.140769378718, "(0.001, 0.0, 0.0, 0.0, 0.001, 0.0, 0.0, 0.0, 0.001)", 0.0849543702127, 0.70385738674, 0.0615354233534, "(0.001, 0.0, 0.0, 0.0, 0.001, 0.0, 0.0, 0.0, 0.001)"
1637149073444395685, 7146, 1636512987, 520922899, base_link, -0.0066727787347, -0.0129340622196, -0.999132601952, -0.0390157375407, "(0.0011432781387004654, 0.0, 0.0, 0.0, 0.0011390057619276167, 0.0, 0.0, 0.0, 0.012510739379370472)", 0.00984724289302, -0.0189363532651, -0.215865345066, "(0.001, 0.0, 0.0, 0.0, 0.001, 0.0, 0.0, 0.0, 0.001)", 0.219507364679, 1.08235705824, -0.147912295046, "(0.001, 0.0, 0.0, 0.0, 0.001, 0.0, 0.0, 0.0, 0.001)"
1637149073465463393, 7147, 1636512987, 541868925, base_link, -0.00677242500954, -0.0129448630958, -0.999094437082, -0.0399608629778, "(0.0011432781387004654, 0.0, 0.0, 0.0, 0.0011390057619276167, 0.0, 0.0, 0.0, 0.012510739379370472)", 0.00321423842492, -0.0162033140854, -0.149150514332, "(0.001, 0.0, 0.0, 0.0, 0.001, 0.0, 0.0, 0.0, 0.001)", 0.37342817421, 0.683520623767, -0.0645503655223, "(0.001, 0.0, 0.0, 0.0, 0.001, 0.0, 0.0, 0.0, 0.001)"
1637149073485622746, 7148, 1636512987, 562155008, base_link, -0.00687140096742, -0.0129605508331, -0.999055156568, -0.0409096822908, "(0.0011432781387004654, 0.0, 0.0, 0.0, 0.0011390057619276167, 0.0, 0.0, 0.0, 0.012510739379370472)", 0.00455434611668, -0.0260335071652, -0.224983013765, "(0.001, 0.0, 0.0, 0.0, 0.001, 0.0, 0.0, 0.0, 0.001)", 0.146847273765, 0.815174753557, 0.204543598801, "(0.001, 0.0, 0.0, 0.0, 0.001, 0.0, 0.0, 0.0, 0.001)"
1637149073506443298, 7149, 1636512987, 581753015, base_link, -0.00698478700737, -0.0129710794433, -0.999015068658, -0.0418551841764, "(0.0011432781387004654, 0.0, 0.0, 0.0, 0.0011390057619276167, 0.0, 0.0, 0.0, 0.012510739379370472)", 0.000975804394707, -0.0193092924585, -0.151843888833, "(0.001, 0.0, 0.0, 0.0, 0.001, 0.0, 0.0, 0.0, 0.001)", 0.642867596544, 0.755941996345, 0.0710761516801, "(0.001, 0.0, 0.0, 0.0, 0.001, 0.0, 0.0, 0.0, 0.001)"
1637149073524691630, 7150, 1636512987, 601160049, base_link, -0.00707162041516, -0.012944301357, -0.998974072526, -0.0428163481415, "(0.0011432781387004654, 0.0, 0.0, 0.0, 0.0011390057619276167, 0.0, 0.0, 0.0, 0.012510739379370472)", -0.0021815942371, -0.0262147010225, -0.228312155699, "(0.001, 0.0, 0.0, 0.0, 0.001, 0.0, 0.0, 0.0, 0.001)", 0.26725574331, 0.792717026825, 0.50516268588, "(0.001, 0.0, 0.0, 0.0, 0.001, 0.0, 0.0, 0.0, 0.001)"
1637149073544652695, 7151, 1636512987, 621206998, base_link, -0.00711964015645, -0.0129619487804, -0.998932671346, -0.0437586188606, "(0.0011432781387004654, 0.0, 0.0, 0.0, 0.0011390057619276167, 0.0, 0.0, 0.0, 0.012510739379370472)", 8.0680154807e-05, -0.0137220110663, -0.15183024178, "(0.001, 0.0, 0.0, 0.0, 0.001, 0.0, 0.0, 0.0, 0.001)", 0.903447918582, 0.360540650237, 0.0983310281037, "(0.001, 0.0, 0.0, 0.0, 0.001, 0.0, 0.0, 0.0, 0.001)"
1637149073567030627, 7152, 1636512987, 643595933, base_link, -0.00713318193938, -0.0129506914698, -0.998889697226, -0.0447299685026, "(0.0011432781387004654, 0.0, 0.0, 0.0, 0.0011390057619276167, 0.0, 0.0, 0.0, 0.012510739379370472)", -0.00142487438251, -0.0113612200107, -0.230203508173, "(0.001, 0.0, 0.0, 0.0, 0.001, 0.0, 0.0, 0.0, 0.001)", 0.554857826886, 0.797228256292, 0.485603459254, "(0.001, 0.0, 0.0, 0.0, 0.001, 0.0, 0.0, 0.0, 0.001)"
1637149073586212636, 7153, 1636512987, 662556886, base_link, -0.00711794214785, -0.0129567539154, -0.998847188681, -0.0456700239834, "(0.0011432781387004654, 0.0, 0.0, 0.0, 0.0011390057619276167, 0.0, 0.0, 0.0, 0.012510739379370472)", -0.000889339147093, -0.00258315002833, -0.151792251883, "(0.001, 0.0, 0.0, 0.0, 0.001, 0.0, 0.0, 0.0, 0.001)", 0.402171444094, 0.392989103714, 0.181957325521, "(0.001, 0.0, 0.0, 0.0, 0.001, 0.0, 0.0, 0.0, 0.001)"
1637149073604913031, 7154, 1636512987, 680800914, base_link, -0.00711864834517, -0.0129555219118, -0.998803416395, -0.0466177508595, "(0.0011432781387004654, 0.0, 0.0, 0.0, 0.0011390057619276167, 0.0, 0.0, 0.0, 0.012510739379370472)", -0.00130995974951, -0.00309150743614, -0.22788487005, "(0.001, 0.0, 0.0, 0.0, 0.001, 0.0, 0.0, 0.0, 0.001)", 0.733411377106, 0.759800776263, 0.204989311982, "(0.001, 0.0, 0.0, 0.0, 0.001, 0.0, 0.0, 0.0, 0.001)"
1637149073625155139, 7155, 1636512987, 701651096, base_link, -0.00710526369177, -0.0129592289846, -0.998759132696, -0.0475580536656, "(0.0011432781387004654, 0.0, 0.0, 0.0, 0.0011390057619276167, 0.0, 0.0, 0.0, 0.012510739379370472)", -0.000575069109847, -0.00077183423615, -0.150295994561, "(0.001, 0.0, 0.0, 0.0, 0.001, 0.0, 0.0, 0.0, 0.001)", -0.0969319195724, 0.455290724473, 0.34130158556, "(0.001, 0.0, 0.0, 0.0, 0.001, 0.0, 0.0, 0.0, 0.001)"
1637149073644363298, 7156, 1636512987, 720912933, base_link, -0.00714474751379, -0.0129919648533, -0.998713954121, -0.048482979232, "(0.0011432781387004654, 0.0, 0.0, 0.0, 0.0011390057619276167, 0.0, 0.0, 0.0, 0.012510739379370472)", 0.00185131280439, -0.00760440168138, -0.224778886978, "(0.001, 0.0, 0.0, 0.0, 0.001, 0.0, 0.0, 0.0, 0.001)", 0.869309848317, 0.545257026397, -0.312275374785, "(0.001, 0.0, 0.0, 0.0, 0.001, 0.0, 0.0, 0.0, 0.001)"
1637149073665068644, 7157, 1636512987, 741554021, base_link, -0.00720914920918, -0.0130106171335, -0.998667421245, -0.0494179497166, "(0.0011432781387004654, 0.0, 0.0, 0.0, 0.0011390057619276167, 0.0, 0.0, 0.0, 0.012510739379370472)", 0.00379522257413, -0.00918851288028, -0.148588717425, "(0.001, 0.0, 0.0, 0.0, 0.001, 0.0, 0.0, 0.0, 0.001)", 0.00530061386473, 0.515328468362, 0.330916005323, "(0.001, 0.0, 0.0, 0.0, 0.001, 0.0, 0.0, 0.0, 0.001)"
1637149073684733326, 7158, 1636512987, 761198043, base_link, -0.0072501053056, -0.0130185382891, -0.998621508132, -0.0503292869974, "(0.0011432781387004654, 0.0, 0.0, 0.0, 0.0011390057619276167, 0.0, 0.0, 0.0, 0.012510739379370472)", 0.00214730979192, -0.0145572025586, -0.221102240959, "(0.001, 0.0, 0.0, 0.0, 0.001, 0.0, 0.0, 0.0, 0.001)", 0.772499572691, 0.461593900137, 0.10849966775, "(0.001, 0.0, 0.0, 0.0, 0.001, 0.0, 0.0, 0.0, 0.001)"
1637149073706603227, 7159, 1636512987, 782638072, base_link, -0.00728698877147, -0.0130148776097, -0.998572688924, -0.0512844780571, "(0.0011432781387004654, 0.0, 0.0, 0.0, 0.0011390057619276167, 0.0, 0.0, 0.0, 0.012510739379370472)", 0.000483133546816, -0.00848893884996, -0.150377291965, "(0.001, 0.0, 0.0, 0.0, 0.001, 0.0, 0.0, 0.0, 0.001)", 0.438858634287, 0.318558692768, 0.190634584789, "(0.001, 0.0, 0.0, 0.0, 0.001, 0.0, 0.0, 0.0, 0.001)"
1637149073725427698, 7160, 1636512987, 801985979, base_link, -0.00724496632398, -0.0130259302868, -0.998523353953, -0.0522393263127, "(0.0011432781387004654, 0.0, 0.0, 0.0, 0.0011390057619276167, 0.0, 0.0, 0.0, 0.012510739379370472)", 0.00077623037858, -0.00318421265672, -0.227562929933, "(0.001, 0.0, 0.0, 0.0, 0.001, 0.0, 0.0, 0.0, 0.001)", 1.0598486528, 0.823195339559, 0.0314270299835, "(0.001, 0.0, 0.0, 0.0, 0.001, 0.0, 0.0, 0.0, 0.001)"
1637149073745154939, 7161, 1636512987, 821403980, base_link, -0.00717460226894, -0.0130416500246, -0.998472210524, -0.0532135815263, "(0.0011432781387004654, 0.0, 0.0, 0.0, 0.0011390057619276167, 0.0, 0.0, 0.0, 0.012510739379370472)", -0.000396410423035, 0.00628628675492, -0.155177869912, "(0.001, 0.0, 0.0, 0.0, 0.001, 0.0, 0.0, 0.0, 0.001)", 1.18715679312, 0.365812391739, -0.460303379684, "(0.001, 0.0, 0.0, 0.0, 0.001, 0.0, 0.0, 0.0, 0.001)"
1637149073765862805, 7162, 1636512987, 842355012, base_link, -0.00707289253444, -0.0130800377335, -0.998419320642, -0.0542009868198, "(0.0011432781387004654, 0.0, 0.0, 0.0, 0.0011390057619276167, 0.0, 0.0, 0.0, 0.012510739379370472)", 0.00494920691856, 0.0163408755327, -0.233982989092, "(0.001, 0.0, 0.0, 0.0, 0.001, 0.0, 0.0, 0.0, 0.001)", 0.473663359182, 0.706692261322, 0.200137125763, "(0.001, 0.0, 0.0, 0.0, 0.001, 0.0, 0.0, 0.0, 0.001)"
1637149073786278934, 7163, 1636512987, 861710071, base_link, -0.0069368125415, -0.0130525303071, -0.998364346251, -0.0552281107734, "(0.0011432781387004654, 0.0, 0.0, 0.0, 0.0011390057619276167, 0.0, 0.0, 0.0, 0.012510739379370472)", -0.00338679500658, 0.0156168150253, -0.162573952575, "(0.001, 0.0, 0.0, 0.0, 0.001, 0.0, 0.0, 0.0, 0.001)", 0.806732453251, 0.289861643296, -0.265874770438, "(0.001, 0.0, 0.0, 0.0, 0.001, 0.0, 0.0, 0.0, 0.001)"
1637149073804771892, 7164, 1636512987, 880692005, base_link, -0.00682817096989, -0.0130742309934, -0.998304679063, -0.0563046030598, "(0.0011432781387004654, 0.0, 0.0, 0.0, 0.0011390057619276167, 0.0, 0.0, 0.0, 0.012510739379370472)", -0.00154181799378, 0.0248965289288, -0.251338209537, "(0.001, 0.0, 0.0, 0.0, 0.001, 0.0, 0.0, 0.0, 0.001)", 0.277735914076, 0.351652059178, -0.103570883928, "(0.001, 0.0, 0.0, 0.0, 0.001, 0.0, 0.0, 0.0, 0.001)"
1637149073825868735, 7165, 1636512987, 901619911, base_link, -0.00671119296832, -0.0130591216084, -0.998244544424, -0.0573781209068, "(0.0011432781387004654, 0.0, 0.0, 0.0, 0.0011390057619276167, 0.0, 0.0, 0.0, 0.012510739379370472)", -0.002450092775, 0.0156861981863, -0.171581586662, "(0.001, 0.0, 0.0, 0.0, 0.001, 0.0, 0.0, 0.0, 0.001)", 0.66237041861, 0.55766427658, 0.139311545517, "(0.001, 0.0, 0.0, 0.0, 0.001, 0.0, 0.0, 0.0, 0.001)"
1637149073844027247, 7166, 1636512987, 920547008, base_link, -0.00663220710927, -0.0130101535716, -0.99817978036, -0.0585138941957, "(0.0011432781387004654, 0.0, 0.0, 0.0, 0.0011390057619276167, 0.0, 0.0, 0.0, 0.012510739379370472)", -0.00975899317638, 0.0193750886879, -0.265111391738, "(0.001, 0.0, 0.0, 0.0, 0.001, 0.0, 0.0, 0.0, 0.001)", 0.0655162313555, 0.270141778617, 0.203330532213, "(0.001, 0.0, 0.0, 0.0, 0.001, 0.0, 0.0, 0.0, 0.001)"
1637149073864436530, 7167, 1636512987, 940994977, base_link, -0.00655269227034, -0.0130084684635, -0.998112755715, -0.0596554176155, "(0.0011432781387004654, 0.0, 0.0, 0.0, 0.0011390057619276167, 0.0, 0.0, 0.0, 0.012510739379370472)", -0.00483964725075, 0.0101886131746, -0.181243201802, "(0.001, 0.0, 0.0, 0.0, 0.001, 0.0, 0.0, 0.0, 0.001)", 0.136894092871, 0.212961423419, 0.12032253324, "(0.001, 0.0, 0.0, 0.0, 0.001, 0.0, 0.0, 0.0, 0.001)"
1637149073885365197, 7168, 1636512987, 961900949, base_link, -0.00646144440694, -0.0129472567073, -0.998042685564, -0.0608392642337, "(0.0011432781387004654, 0.0, 0.0, 0.0, 0.0011390057619276167, 0.0, 0.0, 0.0, 0.012510739379370472)", -0.0121672923668, 0.0156154604023, -0.2797563474, "(0.001, 0.0, 0.0, 0.0, 0.001, 0.0, 0.0, 0.0, 0.001)", 0.826243523159, 0.726729873096, 0.0361687281747, "(0.001, 0.0, 0.0, 0.0, 0.001, 0.0, 0.0, 0.0, 0.001)"
1637149073905880356, 7169, 1636512987, 981425046, base_link, -0.00635025840179, -0.0129293315154, -0.997969525396, -0.0620429930389, "(0.0011432781387004654, 0.0, 0.0, 0.0, 0.0011390057619276167, 0.0, 0.0, 0.0, 0.012510739379370472)", -0.00664572420677, 0.0135011877916, -0.189885680213, "(0.001, 0.0, 0.0, 0.0, 0.001, 0.0, 0.0, 0.0, 0.001)", -0.228140387814, 0.249314950358, 0.0281249206316, "(0.001, 0.0, 0.0, 0.0, 0.001, 0.0, 0.0, 0.0, 0.001)"
1637149073924172510, 7170, 1636512988, 566959, base_link, -0.006236790223, -0.0129019549415, -0.99789222612, -0.0632909713521, "(0.0011432781387004654, 0.0, 0.0, 0.0, 0.0011390057619276167, 0.0, 0.0, 0.0, 0.012510739379370472)", -0.010279248341, 0.0214534365216, -0.294662405309, "(0.001, 0.0, 0.0, 0.0, 0.001, 0.0, 0.0, 0.0, 0.001)", 0.560483662022, 0.593256610451, -0.296299541963, "(0.001, 0.0, 0.0, 0.0, 0.001, 0.0, 0.0, 0.0, 0.001)"
1637149073945448715, 7171, 1636512988, 21994113, base_link, -0.00611736703939, -0.0128821047734, -0.997812253378, -0.0645549084586, "(0.0011432781387004654, 0.0, 0.0, 0.0, 0.0011390057619276167, 0.0, 0.0, 0.0, 0.012510739379370472)", -0.00527610686655, 0.0158268165035, -0.200071936591, "(0.001, 0.0, 0.0, 0.0, 0.001, 0.0, 0.0, 0.0, 0.001)", -0.223441180923, 0.439226556161, 0.0463629931066, "(0.001, 0.0, 0.0, 0.0, 0.001, 0.0, 0.0, 0.0, 0.001)"
1637149073964637548, 7172, 1636512988, 41060924, base_link, -0.00600039530043, -0.0128758215947, -0.99772998159, -0.0658262281357, "(0.0011432781387004654, 0.0, 0.0, 0.0, 0.0011390057619276167, 0.0, 0.0, 0.0, 0.012510739379370472)", -0.00673703453337, 0.0237617971321, -0.303903434726, "(0.001, 0.0, 0.0, 0.0, 0.001, 0.0, 0.0, 0.0, 0.001)", 0.108466149289, 0.250549930995, -0.157257974944, "(0.001, 0.0, 0.0, 0.0, 0.001, 0.0, 0.0, 0.0, 0.001)"
1637149073986767727, 7173, 1636512988, 63117980, base_link, -0.0059389749457, -0.0128213031565, -0.997644108205, -0.0671310369816, "(0.0011432781387004654, 0.0, 0.0, 0.0, 0.0011390057619276167, 0.0, 0.0, 0.0, 0.012510739379370472)", -0.00786794500564, 0.0102648451166, -0.206847024022, "(0.001, 0.0, 0.0, 0.0, 0.001, 0.0, 0.0, 0.0, 0.001)", -0.163642133852, 0.374850463136, 0.203419891193, "(0.001, 0.0, 0.0, 0.0, 0.001, 0.0, 0.0, 0.0, 0.001)"
1637149074006496296, 7174, 1636512988, 81949949, base_link, -0.00593823661394, -0.012773703992, -0.997557431944, -0.068415932393, "(0.0011432781387004654, 0.0, 0.0, 0.0, 0.0011390057619276167, 0.0, 0.0, 0.0, 0.012510739379370472)", -0.012218909657, 0.00423010767977, -0.309526795083, "(0.001, 0.0, 0.0, 0.0, 0.001, 0.0, 0.0, 0.0, 0.001)", -0.462821515003, 0.715820722945, 0.259340200092, "(0.001, 0.0, 0.0, 0.0, 0.001, 0.0, 0.0, 0.0, 0.001)"
1637149074024796104, 7175, 1636512988, 101293087, base_link, -0.00598868333666, -0.0127077384284, -0.997466979373, -0.0697300087252, "(0.0011432781387004654, 0.0, 0.0, 0.0, 0.0011390057619276167, 0.0, 0.0, 0.0, 0.012510739379370472)", -0.0102212924306, -0.00709921952046, -0.209209137009, "(0.001, 0.0, 0.0, 0.0, 0.001, 0.0, 0.0, 0.0, 0.001)", -0.0193321275218, 0.494733229583, 0.208746977329, "(0.001, 0.0, 0.0, 0.0, 0.001, 0.0, 0.0, 0.0, 0.001)"
1637149074044518902, 7176, 1636512988, 121026992, base_link, -0.00614592194804, -0.0126110927292, -0.997375187367, -0.0710346648385, "(0.0011432781387004654, 0.0, 0.0, 0.0, 0.0011390057619276167, 0.0, 0.0, 0.0, 0.012510739379370472)", -0.0187829771459, -0.0284608746057, -0.312635145278, "(0.001, 0.0, 0.0, 0.0, 0.001, 0.0, 0.0, 0.0, 0.001)", -0.717216931706, 0.576620626829, 0.271516972035, "(0.001, 0.0, 0.0, 0.0, 0.001, 0.0, 0.0, 0.0, 0.001)"
1637149074068145755, 7177, 1636512988, 143147945, base_link, -0.00632046048212, -0.0125170660177, -0.997281340519, -0.0723415695862, "(0.0011432781387004654, 0.0, 0.0, 0.0, 0.0011390057619276167, 0.0, 0.0, 0.0, 0.012510739379370472)", -0.0143189411335, -0.0285498393303, -0.209647796693, "(0.001, 0.0, 0.0, 0.0, 0.001, 0.0, 0.0, 0.0, 0.001)", 0.283854864379, 0.474291276005, -0.278676013474, "(0.001, 0.0, 0.0, 0.0, 0.001, 0.0, 0.0, 0.0, 0.001)"
1637149074084223661, 7178, 1636512988, 160742998, base_link, -0.00654921044579, -0.0124299818518, -0.997182285172, -0.0736891683489, "(0.0011432781387004654, 0.0, 0.0, 0.0, 0.0011390057619276167, 0.0, 0.0, 0.0, 0.012510739379370472)", -0.0189733683446, -0.0526303878316, -0.318052841742, "(0.001, 0.0, 0.0, 0.0, 0.001, 0.0, 0.0, 0.0, 0.001)", -0.426622565144, 0.682292456308, -0.109878249958, "(0.001, 0.0, 0.0, 0.0, 0.001, 0.0, 0.0, 0.0, 0.001)"
1637149074106616919, 7179, 1636512988, 182379007, base_link, -0.00677511020927, -0.0123609566566, -0.997081997344, -0.0750252971014, "(0.0011432781387004654, 0.0, 0.0, 0.0, 0.0011390057619276167, 0.0, 0.0, 0.0, 0.012510739379370472)", -0.0111546846085, -0.0392239396659, -0.213984413977, "(0.001, 0.0, 0.0, 0.0, 0.001, 0.0, 0.0, 0.0, 0.001)", 0.311101887855, 0.237141467753, -0.339147850793, "(0.001, 0.0, 0.0, 0.0, 0.001, 0.0, 0.0, 0.0, 0.001)"
1637149074124445298, 7180, 1636512988, 200871944, base_link, -0.00698032501667, -0.0122836704345, -0.996975912203, -0.0764160780858, "(0.0011432781387004654, 0.0, 0.0, 0.0, 0.0011390057619276167, 0.0, 0.0, 0.0, 0.012510739379370472)", -0.0162527146614, -0.0571032256654, -0.327659903183, "(0.001, 0.0, 0.0, 0.0, 0.001, 0.0, 0.0, 0.0, 0.001)", 0.313153627959, 0.421445595614, -0.397118909988, "(0.001, 0.0, 0.0, 0.0, 0.001, 0.0, 0.0, 0.0, 0.001)"
1637149074145552201, 7181, 1636512988, 221189022, base_link, -0.00719052555966, -0.0122313797795, -0.996867262197, -0.0778097118039, "(0.0011432781387004654, 0.0, 0.0, 0.0, 0.0011390057619276167, 0.0, 0.0, 0.0, 0.012510739379370472)", -0.00867742712435, -0.0369308700483, -0.221381688452, "(0.001, 0.0, 0.0, 0.0, 0.001, 0.0, 0.0, 0.0, 0.001)", 0.0224820871841, 0.377234226665, -0.251764860239, "(0.001, 0.0, 0.0, 0.0, 0.001, 0.0, 0.0, 0.0, 0.001)"
1637149074164414052, 7182, 1636512988, 240971088, base_link, -0.00740501714756, -0.0121616808307, -0.996753534165, -0.0792442513337, "(0.0011432781387004654, 0.0, 0.0, 0.0, 0.0011390057619276167, 0.0, 0.0, 0.0, 0.012510739379370472)", -0.0142536924291, -0.0564365261315, -0.339510257321, "(0.001, 0.0, 0.0, 0.0, 0.001, 0.0, 0.0, 0.0, 0.001)", 0.608819975359, 0.436137964902, -0.446356952318, "(0.001, 0.0, 0.0, 0.0, 0.001, 0.0, 0.0, 0.0, 0.001)"
